"acc","accuracy","average_response_time","avg_rt","background","canvas_backend","central_fixation","clock_backend","color_backend","correct","correct_welcome","count_end_sketchpad","count_experiment","count_fix_sketchpad","count_fixation","count_fixation_inline_script","count_fixation_pygaze_log","count_fixation_script","count_fixation_sketchpad","count_fixationstimulus_pygaze_log","count_getting_started","count_image_loop","count_image_stimulus","count_initial_fixation","count_logger","count_new_1_inline_script","count_new_1_loop","count_new_1_pygaze_log","count_new_1_sketchpad","count_new_2_inline_script","count_new_2_loop","count_new_2_pygaze_log","count_new_3_inline_script","count_new_3_loop","count_new_4_inline_script","count_new_4_loop","count_new_inline_script","count_new_loop","count_new_sequence","count_position_loop","count_pygaze_init","count_pygaze_start_recording","count_pygaze_stop_recording","count_shuffle_to_csv","count_start_pygaze_log","count_stop_pygaze_log","count_welcome","d","datetime","description","disable_garbage_collection","experiment_file","experiment_path","file_path","filename","font_bold","font_family","font_italic","font_size","font_underline","foreground","form_clicks","fullscreen","height","i","keyboard_backend","live_row","live_row_position_loop","logfile","mouse_backend","opensesame_codename","opensesame_version","picture1","picture2","repeat_cycle","response","response_end_sketchpad","response_time","response_time_end_sketchpad","response_time_welcome","response_welcome","round_decimals","sampler_backend","sound_buf_size","sound_channels","sound_freq","sound_sample_size","start","stimulus","stimulus1","stimulus2","subject_nr","subject_parity","t0","time_end_sketchpad","time_experiment","time_fix_sketchpad","time_fixation","time_fixation_inline_script","time_fixation_pygaze_log","time_fixation_script","time_fixation_sketchpad","time_fixationstimulus_pygaze_log","time_getting_started","time_image_loop","time_image_stimulus","time_initial_fixation","time_logger","time_new_1_inline_script","time_new_1_loop","time_new_1_pygaze_log","time_new_1_sketchpad","time_new_2_inline_script","time_new_2_loop","time_new_2_pygaze_log","time_new_3_inline_script","time_new_3_loop","time_new_4_inline_script","time_new_4_loop","time_new_inline_script","time_new_loop","time_new_sequence","time_position_loop","time_pygaze_init","time_pygaze_start_recording","time_pygaze_stop_recording","time_shuffle_to_csv","time_start_pygaze_log","time_stop_pygaze_log","time_welcome","title","total_correct","total_response_time","total_responses","width","x1_cor","x2_cor","y1_cor","y2_cor"
"undefined","undefined","undefined","undefined","#3d3846","legacy","True","legacy","legacy","undefined","undefined","0","0","0","0","NA","0","0","NA","0","NA","NA","0","NA","0","NA","NA","NA","NA","NA","NA","NA","NA","NA","NA","NA","NA","NA","0","0","0","0","0","0","0","0","0","25.659981833197023","Mon Jun 24 16:21:07 2024","The main experiment item","False","05 Milestone_FullExperiment_V7.osexp","C:\Users\yarbus\Desktop\Team_Dog\Milestone5_Final","C:\Users\yarbus\AppData\Local\Temp\tmpwlg83d_n.opensesame_pool\stimuli.csv","stimuli.csv","False","mono","False","18","no","white","no","yes","1080","23","legacy","0","0","C:/Users/yarbus/Desktop/Team_Dog/Milestone5_Final/Datenerhebung/max.csv","legacy","Melodramatic Milgram","4.0.13","NA","NA","0","space","NA","1034.0","NA","1034","space","2","legacy","1024","2","48000","-16","experiment","NA","017.png","010.png","0","even","3490553.0","NA","3394851","3497947","3492872","NA","3497921","3490553","NA","3492872","NA","NA","3492921","NA","3498080","NA","NA","NA","NA","NA","NA","NA","NA","NA","NA","NA","NA","NA","3490009","3489927","3395897","3482697","NA","3394855","3490010","3498047","3394862","Left-Bias-Elimination","0","0","0","1920","160","-160","-277","277"
"undefined","undefined","undefined","undefined","#3d3846","legacy","True","legacy","legacy","undefined","undefined","0","0","1","1","NA","1","1","NA","1","NA","NA","1","NA","1","NA","NA","NA","NA","NA","NA","NA","NA","NA","NA","NA","NA","NA","1","0","0","0","0","0","1","1","0","18.23073558142954","Mon Jun 24 16:21:07 2024","The main experiment item","False","05 Milestone_FullExperiment_V7.osexp","C:\Users\yarbus\Desktop\Team_Dog\Milestone5_Final","C:\Users\yarbus\AppData\Local\Temp\tmpwlg83d_n.opensesame_pool\stimuli.csv","stimuli.csv","False","mono","False","18","no","white","no","yes","1080","23","legacy","1","1","C:/Users/yarbus/Desktop/Team_Dog/Milestone5_Final/Datenerhebung/max.csv","legacy","Melodramatic Milgram","4.0.13","NA","NA","0","space","NA","1034.0","NA","1034","space","2","legacy","1024","2","48000","-16","experiment","NA","002.png","000.png","0","even","3498658.0","NA","3394851","3505958","3500937","NA","3505952","3498658","NA","3500937","NA","NA","3500952","NA","3506063","NA","NA","NA","NA","NA","NA","NA","NA","NA","NA","NA","NA","NA","3498174","3489927","3395897","3482697","NA","3394855","3498199","3506058","3394862","Left-Bias-Elimination","0","0","0","1920","0","0","320","-320"
"undefined","undefined","undefined","undefined","#3d3846","legacy","True","legacy","legacy","undefined","undefined","0","0","2","2","NA","2","2","NA","2","NA","NA","2","NA","2","NA","NA","NA","NA","NA","NA","NA","NA","NA","NA","NA","NA","NA","2","0","0","0","0","0","2","2","0","28.400422588405362","Mon Jun 24 16:21:07 2024","The main experiment item","False","05 Milestone_FullExperiment_V7.osexp","C:\Users\yarbus\Desktop\Team_Dog\Milestone5_Final","C:\Users\yarbus\AppData\Local\Temp\tmpwlg83d_n.opensesame_pool\stimuli.csv","stimuli.csv","False","mono","False","18","no","white","no","yes","1080","23","legacy","2","2","C:/Users/yarbus/Desktop/Team_Dog/Milestone5_Final/Datenerhebung/max.csv","legacy","Melodramatic Milgram","4.0.13","NA","NA","0","space","NA","1034.0","NA","1034","space","2","legacy","1024","2","48000","-16","experiment","NA","021.png","006.png","0","even","3506624.0","NA","3394851","3513263","3508249","NA","3513257","3506624","NA","3508249","NA","NA","3508257","NA","3513367","NA","NA","NA","NA","NA","NA","NA","NA","NA","NA","NA","NA","NA","3506141","3489927","3395897","3482697","NA","3394855","3506145","3513363","3394862","Left-Bias-Elimination","0","0","0","1920","-277","277","-160","160"
"undefined","undefined","undefined","undefined","#3d3846","legacy","True","legacy","legacy","undefined","undefined","0","0","3","3","NA","3","3","NA","3","NA","NA","3","NA","3","NA","NA","NA","NA","NA","NA","NA","NA","NA","NA","NA","NA","NA","3","0","0","0","0","0","3","3","0","29.90544961975996","Mon Jun 24 16:21:07 2024","The main experiment item","False","05 Milestone_FullExperiment_V7.osexp","C:\Users\yarbus\Desktop\Team_Dog\Milestone5_Final","C:\Users\yarbus\AppData\Local\Temp\tmpwlg83d_n.opensesame_pool\stimuli.csv","stimuli.csv","False","mono","False","18","no","white","no","yes","1080","23","legacy","3","3","C:/Users/yarbus/Desktop/Team_Dog/Milestone5_Final/Datenerhebung/max.csv","legacy","Melodramatic Milgram","4.0.13","NA","NA","0","space","NA","1034.0","NA","1034","space","2","legacy","1024","2","48000","-16","experiment","NA","010.png","016.png","0","even","3513879.0","NA","3394851","3520929","3515911","NA","3520921","3513879","NA","3515911","NA","NA","3515921","NA","3521033","NA","NA","NA","NA","NA","NA","NA","NA","NA","NA","NA","NA","NA","3513446","3489927","3395897","3482697","NA","3394855","3513447","3521029","3394862","Left-Bias-Elimination","0","0","0","1920","0","0","320","-320"
"undefined","undefined","undefined","undefined","#3d3846","legacy","True","legacy","legacy","undefined","undefined","0","0","4","4","NA","4","4","NA","4","NA","NA","4","NA","4","NA","NA","NA","NA","NA","NA","NA","NA","NA","NA","NA","NA","NA","4","0","0","0","0","0","4","4","0","19.314574082800785","Mon Jun 24 16:21:07 2024","The main experiment item","False","05 Milestone_FullExperiment_V7.osexp","C:\Users\yarbus\Desktop\Team_Dog\Milestone5_Final","C:\Users\yarbus\AppData\Local\Temp\tmpwlg83d_n.opensesame_pool\stimuli.csv","stimuli.csv","False","mono","False","18","no","white","no","yes","1080","23","legacy","4","4","C:/Users/yarbus/Desktop/Team_Dog/Milestone5_Final/Datenerhebung/max.csv","legacy","Melodramatic Milgram","4.0.13","NA","NA","0","space","NA","1034.0","NA","1034","space","2","legacy","1024","2","48000","-16","experiment","NA","016.png","001.png","0","even","3521570.0","NA","3394851","3528214","3523196","NA","3528207","3521570","NA","3523196","NA","NA","3523207","NA","3528318","NA","NA","NA","NA","NA","NA","NA","NA","NA","NA","NA","NA","NA","3521101","3489927","3395897","3482697","NA","3394855","3521104","3528314","3394862","Left-Bias-Elimination","0","0","0","1920","277","-277","-160","160"
"undefined","undefined","undefined","undefined","#3d3846","legacy","True","legacy","legacy","undefined","undefined","0","0","5","5","NA","5","5","NA","5","NA","NA","5","NA","5","NA","NA","NA","NA","NA","NA","NA","NA","NA","NA","NA","NA","NA","5","0","0","0","0","0","5","5","0","28.133858604890975","Mon Jun 24 16:21:07 2024","The main experiment item","False","05 Milestone_FullExperiment_V7.osexp","C:\Users\yarbus\Desktop\Team_Dog\Milestone5_Final","C:\Users\yarbus\AppData\Local\Temp\tmpwlg83d_n.opensesame_pool\stimuli.csv","stimuli.csv","False","mono","False","18","no","white","no","yes","1080","23","legacy","5","5","C:/Users/yarbus/Desktop/Team_Dog/Milestone5_Final/Datenerhebung/max.csv","legacy","Melodramatic Milgram","4.0.13","NA","NA","0","space","NA","1034.0","NA","1034","space","2","legacy","1024","2","48000","-16","experiment","NA","009.png","018.png","0","even","3528870.0","NA","3394851","3535854","3530839","NA","3535847","3528870","NA","3530839","NA","NA","3530847","NA","3535958","NA","NA","NA","NA","NA","NA","NA","NA","NA","NA","NA","NA","NA","3528411","3489927","3395897","3482697","NA","3394855","3528412","3535954","3394862","Left-Bias-Elimination","0","0","0","1920","-160","160","-277","277"
"undefined","undefined","undefined","undefined","#3d3846","legacy","True","legacy","legacy","undefined","undefined","0","0","6","6","NA","6","6","NA","6","NA","NA","6","NA","6","NA","NA","NA","NA","NA","NA","NA","NA","NA","NA","NA","NA","NA","6","0","0","0","0","0","6","6","0","29.09161175596836","Mon Jun 24 16:21:07 2024","The main experiment item","False","05 Milestone_FullExperiment_V7.osexp","C:\Users\yarbus\Desktop\Team_Dog\Milestone5_Final","C:\Users\yarbus\AppData\Local\Temp\tmpwlg83d_n.opensesame_pool\stimuli.csv","stimuli.csv","False","mono","False","18","no","white","no","yes","1080","23","legacy","6","6","C:/Users/yarbus/Desktop/Team_Dog/Milestone5_Final/Datenerhebung/max.csv","legacy","Melodramatic Milgram","4.0.13","NA","NA","0","space","NA","1034.0","NA","1034","space","2","legacy","1024","2","48000","-16","experiment","NA","011.png","012.png","0","even","3536501.0","NA","3394851","3543177","3538164","NA","3543171","3536501","NA","3538164","NA","NA","3538171","NA","3543282","NA","NA","NA","NA","NA","NA","NA","NA","NA","NA","NA","NA","NA","3536042","3489927","3395897","3482697","NA","3394855","3536044","3543277","3394862","Left-Bias-Elimination","0","0","0","1920","-320","320","0","0"
"undefined","undefined","undefined","undefined","#3d3846","legacy","True","legacy","legacy","undefined","undefined","0","0","7","7","NA","7","7","NA","7","NA","NA","7","NA","7","NA","NA","NA","NA","NA","NA","NA","NA","NA","NA","NA","NA","NA","7","0","0","0","0","0","7","7","0","16.34062766970723","Mon Jun 24 16:21:07 2024","The main experiment item","False","05 Milestone_FullExperiment_V7.osexp","C:\Users\yarbus\Desktop\Team_Dog\Milestone5_Final","C:\Users\yarbus\AppData\Local\Temp\tmpwlg83d_n.opensesame_pool\stimuli.csv","stimuli.csv","False","mono","False","18","no","white","no","yes","1080","23","legacy","7","7","C:/Users/yarbus/Desktop/Team_Dog/Milestone5_Final/Datenerhebung/max.csv","legacy","Melodramatic Milgram","4.0.13","NA","NA","0","space","NA","1034.0","NA","1034","space","2","legacy","1024","2","48000","-16","experiment","NA","005.png","003.png","0","even","3543825.0","NA","3394851","3550362","3545347","NA","3550355","3543825","NA","3545347","NA","NA","3545355","NA","3550466","NA","NA","NA","NA","NA","NA","NA","NA","NA","NA","NA","NA","NA","3543388","3489927","3395897","3482697","NA","3394855","3543390","3550462","3394862","Left-Bias-Elimination","0","0","0","1920","277","-277","-160","160"
"undefined","undefined","undefined","undefined","#3d3846","legacy","True","legacy","legacy","undefined","undefined","0","0","8","8","NA","8","8","NA","8","NA","NA","8","NA","8","NA","NA","NA","NA","NA","NA","NA","NA","NA","NA","NA","NA","NA","8","0","0","0","0","0","8","8","0","29.186452002256097","Mon Jun 24 16:21:07 2024","The main experiment item","False","05 Milestone_FullExperiment_V7.osexp","C:\Users\yarbus\Desktop\Team_Dog\Milestone5_Final","C:\Users\yarbus\AppData\Local\Temp\tmpwlg83d_n.opensesame_pool\stimuli.csv","stimuli.csv","False","mono","False","18","no","white","no","yes","1080","23","legacy","8","8","C:/Users/yarbus/Desktop/Team_Dog/Milestone5_Final/Datenerhebung/max.csv","legacy","Melodramatic Milgram","4.0.13","NA","NA","0","space","NA","1034.0","NA","1034","space","2","legacy","1024","2","48000","-16","experiment","NA","008.png","014.png","0","even","3551004.0","NA","3394851","3557576","3552561","NA","3557568","3551004","NA","3552561","NA","NA","3552568","NA","3557680","NA","NA","NA","NA","NA","NA","NA","NA","NA","NA","NA","NA","NA","3550567","3489927","3395897","3482697","NA","3394855","3550569","3557676","3394862","Left-Bias-Elimination","0","0","0","1920","-320","320","0","0"
"undefined","undefined","undefined","undefined","#3d3846","legacy","True","legacy","legacy","undefined","undefined","0","0","9","9","NA","9","9","NA","9","NA","NA","9","NA","9","NA","NA","NA","NA","NA","NA","NA","NA","NA","NA","NA","NA","NA","9","0","0","0","0","0","9","9","0","20.239611415242187","Mon Jun 24 16:21:07 2024","The main experiment item","False","05 Milestone_FullExperiment_V7.osexp","C:\Users\yarbus\Desktop\Team_Dog\Milestone5_Final","C:\Users\yarbus\AppData\Local\Temp\tmpwlg83d_n.opensesame_pool\stimuli.csv","stimuli.csv","False","mono","False","18","no","white","no","yes","1080","23","legacy","9","9","C:/Users/yarbus/Desktop/Team_Dog/Milestone5_Final/Datenerhebung/max.csv","legacy","Melodramatic Milgram","4.0.13","NA","NA","0","space","NA","1034.0","NA","1034","space","2","legacy","1024","2","48000","-16","experiment","NA","003.png","011.png","0","even","3558215.0","NA","3394851","3564886","3559867","NA","3564877","3558215","NA","3559867","NA","NA","3559877","NA","3564991","NA","NA","NA","NA","NA","NA","NA","NA","NA","NA","NA","NA","NA","3557766","3489927","3395897","3482697","NA","3394855","3557767","3564986","3394862","Left-Bias-Elimination","0","0","0","1920","-277","277","-160","160"
"undefined","undefined","undefined","undefined","#3d3846","legacy","True","legacy","legacy","undefined","undefined","0","0","10","10","NA","10","10","NA","10","NA","NA","10","NA","10","NA","NA","NA","NA","NA","NA","NA","NA","NA","NA","NA","NA","NA","10","0","0","0","0","0","10","10","0","24.276317378053793","Mon Jun 24 16:21:07 2024","The main experiment item","False","05 Milestone_FullExperiment_V7.osexp","C:\Users\yarbus\Desktop\Team_Dog\Milestone5_Final","C:\Users\yarbus\AppData\Local\Temp\tmpwlg83d_n.opensesame_pool\stimuli.csv","stimuli.csv","False","mono","False","18","no","white","no","yes","1080","23","legacy","10","10","C:/Users/yarbus/Desktop/Team_Dog/Milestone5_Final/Datenerhebung/max.csv","legacy","Melodramatic Milgram","4.0.13","NA","NA","0","space","NA","1034.0","NA","1034","space","2","legacy","1024","2","48000","-16","experiment","NA","001.png","017.png","0","even","3565509.0","NA","3394851","3572300","3567278","NA","3572293","3565509","NA","3567278","NA","NA","3567293","NA","3572404","NA","NA","NA","NA","NA","NA","NA","NA","NA","NA","NA","NA","NA","3565074","3489927","3395897","3482697","NA","3394855","3565076","3572400","3394862","Left-Bias-Elimination","0","0","0","1920","160","-160","-277","277"
"undefined","undefined","undefined","undefined","#3d3846","legacy","True","legacy","legacy","undefined","undefined","0","0","11","11","NA","11","11","NA","11","NA","NA","11","NA","11","NA","NA","NA","NA","NA","NA","NA","NA","NA","NA","NA","NA","NA","11","0","0","0","0","0","11","11","0","19.980476102435627","Mon Jun 24 16:21:07 2024","The main experiment item","False","05 Milestone_FullExperiment_V7.osexp","C:\Users\yarbus\Desktop\Team_Dog\Milestone5_Final","C:\Users\yarbus\AppData\Local\Temp\tmpwlg83d_n.opensesame_pool\stimuli.csv","stimuli.csv","False","mono","False","18","no","white","no","yes","1080","23","legacy","11","11","C:/Users/yarbus/Desktop/Team_Dog/Milestone5_Final/Datenerhebung/max.csv","legacy","Melodramatic Milgram","4.0.13","NA","NA","0","space","NA","1034.0","NA","1034","space","2","legacy","1024","2","48000","-16","experiment","NA","013.png","015.png","0","even","3572914.0","NA","3394851","3579909","3574890","NA","3579901","3572914","NA","3574890","NA","NA","3574901","NA","3580013","NA","NA","NA","NA","NA","NA","NA","NA","NA","NA","NA","NA","NA","3572484","3489927","3395897","3482697","NA","3394855","3572485","3580009","3394862","Left-Bias-Elimination","0","0","0","1920","-160","160","-277","277"
"undefined","undefined","undefined","undefined","#3d3846","legacy","True","legacy","legacy","undefined","undefined","0","0","12","12","NA","12","12","NA","12","NA","NA","12","NA","12","NA","NA","NA","NA","NA","NA","NA","NA","NA","NA","NA","NA","NA","12","0","0","0","0","0","12","12","0","27.021038949677806","Mon Jun 24 16:21:07 2024","The main experiment item","False","05 Milestone_FullExperiment_V7.osexp","C:\Users\yarbus\Desktop\Team_Dog\Milestone5_Final","C:\Users\yarbus\AppData\Local\Temp\tmpwlg83d_n.opensesame_pool\stimuli.csv","stimuli.csv","False","mono","False","18","no","white","no","yes","1080","23","legacy","12","12","C:/Users/yarbus/Desktop/Team_Dog/Milestone5_Final/Datenerhebung/max.csv","legacy","Melodramatic Milgram","4.0.13","NA","NA","0","space","NA","1034.0","NA","1034","space","2","legacy","1024","2","48000","-16","experiment","NA","014.png","005.png","0","even","3580599.0","NA","3394851","3587477","3582462","NA","3587470","3580599","NA","3582462","NA","NA","3582470","NA","3587581","NA","NA","NA","NA","NA","NA","NA","NA","NA","NA","NA","NA","NA","3580118","3489927","3395897","3482697","NA","3394855","3580119","3587577","3394862","Left-Bias-Elimination","0","0","0","1920","160","-160","277","-277"
"undefined","undefined","undefined","undefined","#3d3846","legacy","True","legacy","legacy","undefined","undefined","0","0","13","13","NA","13","13","NA","13","NA","NA","13","NA","13","NA","NA","NA","NA","NA","NA","NA","NA","NA","NA","NA","NA","NA","13","0","0","0","0","0","13","13","0","11.861824642102855","Mon Jun 24 16:21:07 2024","The main experiment item","False","05 Milestone_FullExperiment_V7.osexp","C:\Users\yarbus\Desktop\Team_Dog\Milestone5_Final","C:\Users\yarbus\AppData\Local\Temp\tmpwlg83d_n.opensesame_pool\stimuli.csv","stimuli.csv","False","mono","False","18","no","white","no","yes","1080","23","legacy","13","13","C:/Users/yarbus/Desktop/Team_Dog/Milestone5_Final/Datenerhebung/max.csv","legacy","Melodramatic Milgram","4.0.13","NA","NA","0","space","NA","1034.0","NA","1034","space","2","legacy","1024","2","48000","-16","experiment","NA","006.png","002.png","0","even","3588141.0","NA","3394851","3594706","3589691","NA","3594700","3588140","NA","3589691","NA","NA","3589700","NA","3594810","NA","NA","NA","NA","NA","NA","NA","NA","NA","NA","NA","NA","NA","3587663","3489927","3395897","3482697","NA","3394855","3587665","3594806","3394862","Left-Bias-Elimination","0","0","0","1920","-160","160","277","-277"
"undefined","undefined","undefined","undefined","#3d3846","legacy","True","legacy","legacy","undefined","undefined","0","0","14","14","NA","14","14","NA","14","NA","NA","14","NA","14","NA","NA","NA","NA","NA","NA","NA","NA","NA","NA","NA","NA","NA","14","0","0","0","0","0","14","14","0","16.566672786048493","Mon Jun 24 16:21:07 2024","The main experiment item","False","05 Milestone_FullExperiment_V7.osexp","C:\Users\yarbus\Desktop\Team_Dog\Milestone5_Final","C:\Users\yarbus\AppData\Local\Temp\tmpwlg83d_n.opensesame_pool\stimuli.csv","stimuli.csv","False","mono","False","18","no","white","no","yes","1080","23","legacy","14","14","C:/Users/yarbus/Desktop/Team_Dog/Milestone5_Final/Datenerhebung/max.csv","legacy","Melodramatic Milgram","4.0.13","NA","NA","0","space","NA","1034.0","NA","1034","space","2","legacy","1024","2","48000","-16","experiment","NA","012.png","004.png","0","even","3595360.0","NA","3394851","3601880","3596862","NA","3601873","3595360","NA","3596862","NA","NA","3596873","NA","3601984","NA","NA","NA","NA","NA","NA","NA","NA","NA","NA","NA","NA","NA","3594878","3489927","3395897","3482697","NA","3394855","3594881","3601980","3394862","Left-Bias-Elimination","0","0","0","1920","277","-277","160","-160"
"undefined","undefined","undefined","undefined","#3d3846","legacy","True","legacy","legacy","undefined","undefined","0","0","15","15","NA","15","15","NA","15","NA","NA","15","NA","15","NA","NA","NA","NA","NA","NA","NA","NA","NA","NA","NA","NA","NA","15","0","0","0","0","0","15","15","0","11.512448087179397","Mon Jun 24 16:21:07 2024","The main experiment item","False","05 Milestone_FullExperiment_V7.osexp","C:\Users\yarbus\Desktop\Team_Dog\Milestone5_Final","C:\Users\yarbus\AppData\Local\Temp\tmpwlg83d_n.opensesame_pool\stimuli.csv","stimuli.csv","False","mono","False","18","no","white","no","yes","1080","23","legacy","15","15","C:/Users/yarbus/Desktop/Team_Dog/Milestone5_Final/Datenerhebung/max.csv","legacy","Melodramatic Milgram","4.0.13","NA","NA","0","space","NA","1034.0","NA","1034","space","2","legacy","1024","2","48000","-16","experiment","NA","019.png","021.png","0","even","3602557.0","NA","3394851","3609077","3604059","NA","3609071","3602557","NA","3604059","NA","NA","3604071","NA","3609181","NA","NA","NA","NA","NA","NA","NA","NA","NA","NA","NA","NA","NA","3602076","3489927","3395897","3482697","NA","3394855","3602077","3609177","3394862","Left-Bias-Elimination","0","0","0","1920","320","-320","0","0"
"undefined","undefined","undefined","undefined","#3d3846","legacy","True","legacy","legacy","undefined","undefined","0","0","16","16","NA","16","16","NA","16","NA","NA","16","NA","16","NA","NA","NA","NA","NA","NA","NA","NA","NA","NA","NA","NA","NA","16","0","0","0","0","0","16","16","0","22.830719799428184","Mon Jun 24 16:21:07 2024","The main experiment item","False","05 Milestone_FullExperiment_V7.osexp","C:\Users\yarbus\Desktop\Team_Dog\Milestone5_Final","C:\Users\yarbus\AppData\Local\Temp\tmpwlg83d_n.opensesame_pool\stimuli.csv","stimuli.csv","False","mono","False","18","no","white","no","yes","1080","23","legacy","16","16","C:/Users/yarbus/Desktop/Team_Dog/Milestone5_Final/Datenerhebung/max.csv","legacy","Melodramatic Milgram","4.0.13","NA","NA","0","space","NA","1034.0","NA","1034","space","2","legacy","1024","2","48000","-16","experiment","NA","015.png","007.png","0","even","3609764.0","NA","3394851","3616356","3611334","NA","3616344","3609764","NA","3611334","NA","NA","3611344","NA","3616460","NA","NA","NA","NA","NA","NA","NA","NA","NA","NA","NA","NA","NA","3609276","3489927","3395897","3482697","NA","3394855","3609281","3616456","3394862","Left-Bias-Elimination","0","0","0","1920","-277","277","160","-160"
"undefined","undefined","undefined","undefined","#3d3846","legacy","True","legacy","legacy","undefined","undefined","0","0","17","17","NA","17","17","NA","17","NA","NA","17","NA","17","NA","NA","NA","NA","NA","NA","NA","NA","NA","NA","NA","NA","NA","17","0","0","0","0","0","17","17","0","22.93743885267059","Mon Jun 24 16:21:07 2024","The main experiment item","False","05 Milestone_FullExperiment_V7.osexp","C:\Users\yarbus\Desktop\Team_Dog\Milestone5_Final","C:\Users\yarbus\AppData\Local\Temp\tmpwlg83d_n.opensesame_pool\stimuli.csv","stimuli.csv","False","mono","False","18","no","white","no","yes","1080","23","legacy","17","17","C:/Users/yarbus/Desktop/Team_Dog/Milestone5_Final/Datenerhebung/max.csv","legacy","Melodramatic Milgram","4.0.13","NA","NA","0","space","NA","1034.0","NA","1034","space","2","legacy","1024","2","48000","-16","experiment","NA","000.png","013.png","0","even","3616986.0","NA","3394851","3623569","3618551","NA","3623563","3616986","NA","3618551","NA","NA","3618563","NA","3623673","NA","NA","NA","NA","NA","NA","NA","NA","NA","NA","NA","NA","NA","3616548","3489927","3395897","3482697","NA","3394855","3616549","3623669","3394862","Left-Bias-Elimination","0","0","0","1920","320","-320","0","0"
"undefined","undefined","undefined","undefined","#3d3846","legacy","True","legacy","legacy","undefined","undefined","0","0","18","18","NA","18","18","NA","18","NA","NA","18","NA","18","NA","NA","NA","NA","NA","NA","NA","NA","NA","NA","NA","NA","NA","18","0","0","0","0","0","18","18","0","23.120453531883825","Mon Jun 24 16:21:07 2024","The main experiment item","False","05 Milestone_FullExperiment_V7.osexp","C:\Users\yarbus\Desktop\Team_Dog\Milestone5_Final","C:\Users\yarbus\AppData\Local\Temp\tmpwlg83d_n.opensesame_pool\stimuli.csv","stimuli.csv","False","mono","False","18","no","white","no","yes","1080","23","legacy","18","18","C:/Users/yarbus/Desktop/Team_Dog/Milestone5_Final/Datenerhebung/max.csv","legacy","Melodramatic Milgram","4.0.13","NA","NA","0","space","NA","1034.0","NA","1034","space","2","legacy","1024","2","48000","-16","experiment","NA","007.png","008.png","0","even","3624210.0","NA","3394851","3630778","3625742","NA","3630772","3624210","NA","3625742","NA","NA","3625772","NA","3630883","NA","NA","NA","NA","NA","NA","NA","NA","NA","NA","NA","NA","NA","3623775","3489927","3395897","3482697","NA","3394855","3623776","3630878","3394862","Left-Bias-Elimination","0","0","0","1920","160","-160","277","-277"
"undefined","undefined","undefined","undefined","#3d3846","legacy","True","legacy","legacy","undefined","undefined","0","0","19","19","NA","19","19","NA","19","NA","NA","19","NA","19","NA","NA","NA","NA","NA","NA","NA","NA","NA","NA","NA","NA","NA","19","0","0","0","0","0","19","19","0","6.609967745760892","Mon Jun 24 16:21:07 2024","The main experiment item","False","05 Milestone_FullExperiment_V7.osexp","C:\Users\yarbus\Desktop\Team_Dog\Milestone5_Final","C:\Users\yarbus\AppData\Local\Temp\tmpwlg83d_n.opensesame_pool\stimuli.csv","stimuli.csv","False","mono","False","18","no","white","no","yes","1080","23","legacy","19","19","C:/Users/yarbus/Desktop/Team_Dog/Milestone5_Final/Datenerhebung/max.csv","legacy","Melodramatic Milgram","4.0.13","NA","NA","0","space","NA","1034.0","NA","1034","space","2","legacy","1024","2","48000","-16","experiment","NA","020.png","020.png","0","even","3631427.0","NA","3394851","3637942","3632929","NA","3637936","3631427","NA","3632929","NA","NA","3632936","NA","3638046","NA","NA","NA","NA","NA","NA","NA","NA","NA","NA","NA","NA","NA","3630990","3489927","3395897","3482697","NA","3394855","3630991","3638042","3394862","Left-Bias-Elimination","0","0","0","1920","-277","277","160","-160"
"undefined","undefined","undefined","undefined","#3d3846","legacy","True","legacy","legacy","undefined","undefined","0","0","20","20","NA","20","20","NA","20","NA","NA","20","NA","20","NA","NA","NA","NA","NA","NA","NA","NA","NA","NA","NA","NA","NA","20","0","0","0","0","0","20","20","0","29.165553643982175","Mon Jun 24 16:21:07 2024","The main experiment item","False","05 Milestone_FullExperiment_V7.osexp","C:\Users\yarbus\Desktop\Team_Dog\Milestone5_Final","C:\Users\yarbus\AppData\Local\Temp\tmpwlg83d_n.opensesame_pool\stimuli.csv","stimuli.csv","False","mono","False","18","no","white","no","yes","1080","23","legacy","20","20","C:/Users/yarbus/Desktop/Team_Dog/Milestone5_Final/Datenerhebung/max.csv","legacy","Melodramatic Milgram","4.0.13","NA","NA","0","space","NA","1034.0","NA","1034","space","2","legacy","1024","2","48000","-16","experiment","NA","018.png","009.png","0","even","3638591.0","NA","3394851","3645166","3640150","NA","3645160","3638591","NA","3640150","NA","NA","3640160","NA","3645271","NA","NA","NA","NA","NA","NA","NA","NA","NA","NA","NA","NA","NA","3638121","3489927","3395897","3482697","NA","3394855","3638123","3645266","3394862","Left-Bias-Elimination","0","0","0","1920","0","0","-320","320"
"undefined","undefined","undefined","undefined","#3d3846","legacy","True","legacy","legacy","undefined","undefined","0","0","21","21","NA","21","21","NA","21","NA","NA","21","NA","21","NA","NA","NA","NA","NA","NA","NA","NA","NA","NA","NA","NA","NA","21","0","0","0","0","0","21","21","0","28.324727020749883","Mon Jun 24 16:21:07 2024","The main experiment item","False","05 Milestone_FullExperiment_V7.osexp","C:\Users\yarbus\Desktop\Team_Dog\Milestone5_Final","C:\Users\yarbus\AppData\Local\Temp\tmpwlg83d_n.opensesame_pool\stimuli.csv","stimuli.csv","False","mono","False","18","no","white","no","yes","1080","23","legacy","21","21","C:/Users/yarbus/Desktop/Team_Dog/Milestone5_Final/Datenerhebung/max.csv","legacy","Melodramatic Milgram","4.0.13","NA","NA","0","space","NA","1034.0","NA","1034","space","2","legacy","1024","2","48000","-16","experiment","NA","004.png","019.png","0","even","3645792.0","NA","3394851","3652437","3647417","NA","3652429","3645792","NA","3647417","NA","NA","3647429","NA","3652541","NA","NA","NA","NA","NA","NA","NA","NA","NA","NA","NA","NA","NA","3645354","3489927","3395897","3482697","NA","3394855","3645355","3652537","3394862","Left-Bias-Elimination","0","0","0","1920","277","-277","160","-160"
"undefined","undefined","undefined","undefined","#3d3846","legacy","True","legacy","legacy","undefined","undefined","0","0","22","22","NA","22","22","NA","22","NA","NA","22","NA","22","NA","NA","NA","NA","NA","NA","NA","NA","NA","NA","NA","NA","NA","22","0","0","0","0","0","22","22","0","24.889310823725097","Mon Jun 24 16:21:07 2024","The main experiment item","False","05 Milestone_FullExperiment_V7.osexp","C:\Users\yarbus\Desktop\Team_Dog\Milestone5_Final","C:\Users\yarbus\AppData\Local\Temp\tmpwlg83d_n.opensesame_pool\stimuli.csv","stimuli.csv","False","mono","False","18","no","white","no","yes","1080","23","legacy","22","22","C:/Users/yarbus/Desktop/Team_Dog/Milestone5_Final/Datenerhebung/max.csv","legacy","Melodramatic Milgram","4.0.13","NA","NA","0","space","NA","1034.0","NA","1034","space","2","legacy","1024","2","48000","-16","experiment","NA","004.png","019.png","0","even","3653040.0","NA","3394851","3659607","3654591","NA","3659599","3653040","NA","3654592","NA","NA","3654598","NA","3659711","NA","NA","NA","NA","NA","NA","NA","NA","NA","NA","NA","NA","NA","3652631","3489927","3395897","3482697","NA","3394855","3652632","3659707","3394862","Left-Bias-Elimination","0","0","0","1920","0","0","-320","320"
"undefined","undefined","undefined","undefined","#3d3846","legacy","True","legacy","legacy","undefined","undefined","0","0","23","23","NA","23","23","NA","23","NA","NA","23","NA","23","NA","NA","NA","NA","NA","NA","NA","NA","NA","NA","NA","NA","NA","23","0","0","0","0","0","23","23","0","29.31028659839405","Mon Jun 24 16:21:07 2024","The main experiment item","False","05 Milestone_FullExperiment_V7.osexp","C:\Users\yarbus\Desktop\Team_Dog\Milestone5_Final","C:\Users\yarbus\AppData\Local\Temp\tmpwlg83d_n.opensesame_pool\stimuli.csv","stimuli.csv","False","mono","False","18","no","white","no","yes","1080","23","legacy","23","23","C:/Users/yarbus/Desktop/Team_Dog/Milestone5_Final/Datenerhebung/max.csv","legacy","Melodramatic Milgram","4.0.13","NA","NA","0","space","NA","1034.0","NA","1034","space","2","legacy","1024","2","48000","-16","experiment","NA","018.png","009.png","0","even","3660201.0","NA","3394851","3666743","3661728","NA","3666737","3660201","NA","3661728","NA","NA","3661737","NA","3666847","NA","NA","NA","NA","NA","NA","NA","NA","NA","NA","NA","NA","NA","3659791","3489927","3395897","3482697","NA","3394855","3659792","3666843","3394862","Left-Bias-Elimination","0","0","0","1920","-160","160","277","-277"
"undefined","undefined","undefined","undefined","#3d3846","legacy","True","legacy","legacy","undefined","undefined","0","0","24","24","NA","24","24","NA","24","NA","NA","24","NA","24","NA","NA","NA","NA","NA","NA","NA","NA","NA","NA","NA","NA","NA","24","0","0","0","0","0","24","24","0","20.636792715923626","Mon Jun 24 16:21:07 2024","The main experiment item","False","05 Milestone_FullExperiment_V7.osexp","C:\Users\yarbus\Desktop\Team_Dog\Milestone5_Final","C:\Users\yarbus\AppData\Local\Temp\tmpwlg83d_n.opensesame_pool\stimuli.csv","stimuli.csv","False","mono","False","18","no","white","no","yes","1080","23","legacy","24","24","C:/Users/yarbus/Desktop/Team_Dog/Milestone5_Final/Datenerhebung/max.csv","legacy","Melodramatic Milgram","4.0.13","NA","NA","0","space","NA","1034.0","NA","1034","space","2","legacy","1024","2","48000","-16","experiment","NA","017.png","010.png","0","even","3667336.0","NA","3394851","3674456","3669441","NA","3674450","3667336","NA","3669441","NA","NA","3669450","NA","3674560","NA","NA","NA","NA","NA","NA","NA","NA","NA","NA","NA","NA","NA","3666927","3489927","3395897","3482697","NA","3394855","3666928","3674556","3394862","Left-Bias-Elimination","0","0","0","1920","160","-160","-277","277"
"undefined","undefined","undefined","undefined","#3d3846","legacy","True","legacy","legacy","undefined","undefined","0","0","25","25","NA","25","25","NA","25","NA","NA","25","NA","25","NA","NA","NA","NA","NA","NA","NA","NA","NA","NA","NA","NA","NA","25","0","0","0","0","0","25","25","0","17.210607710362805","Mon Jun 24 16:21:07 2024","The main experiment item","False","05 Milestone_FullExperiment_V7.osexp","C:\Users\yarbus\Desktop\Team_Dog\Milestone5_Final","C:\Users\yarbus\AppData\Local\Temp\tmpwlg83d_n.opensesame_pool\stimuli.csv","stimuli.csv","False","mono","False","18","no","white","no","yes","1080","23","legacy","25","25","C:/Users/yarbus/Desktop/Team_Dog/Milestone5_Final/Datenerhebung/max.csv","legacy","Melodramatic Milgram","4.0.13","NA","NA","0","space","NA","1034.0","NA","1034","space","2","legacy","1024","2","48000","-16","experiment","NA","002.png","000.png","0","even","3675066.0","NA","3394851","3681600","3676580","NA","3681592","3675066","NA","3676580","NA","NA","3676592","NA","3681704","NA","NA","NA","NA","NA","NA","NA","NA","NA","NA","NA","NA","NA","3674654","3489927","3395897","3482697","NA","3394855","3674657","3681700","3394862","Left-Bias-Elimination","0","0","0","1920","0","0","320","-320"
"undefined","undefined","undefined","undefined","#3d3846","legacy","True","legacy","legacy","undefined","undefined","0","0","26","26","NA","26","26","NA","26","NA","NA","26","NA","26","NA","NA","NA","NA","NA","NA","NA","NA","NA","NA","NA","NA","NA","26","0","0","0","0","0","26","26","0","24.7235023829553","Mon Jun 24 16:21:07 2024","The main experiment item","False","05 Milestone_FullExperiment_V7.osexp","C:\Users\yarbus\Desktop\Team_Dog\Milestone5_Final","C:\Users\yarbus\AppData\Local\Temp\tmpwlg83d_n.opensesame_pool\stimuli.csv","stimuli.csv","False","mono","False","18","no","white","no","yes","1080","23","legacy","26","26","C:/Users/yarbus/Desktop/Team_Dog/Milestone5_Final/Datenerhebung/max.csv","legacy","Melodramatic Milgram","4.0.13","NA","NA","0","space","NA","1034.0","NA","1034","space","2","legacy","1024","2","48000","-16","experiment","NA","021.png","006.png","0","even","3682196.0","NA","3394851","3688828","3683815","NA","3688822","3682196","NA","3683815","NA","NA","3683822","NA","3688932","NA","NA","NA","NA","NA","NA","NA","NA","NA","NA","NA","NA","NA","3681786","3489927","3395897","3482697","NA","3394855","3681787","3688928","3394862","Left-Bias-Elimination","0","0","0","1920","-277","277","-160","160"
"undefined","undefined","undefined","undefined","#3d3846","legacy","True","legacy","legacy","undefined","undefined","0","0","27","27","NA","27","27","NA","27","NA","NA","27","NA","27","NA","NA","NA","NA","NA","NA","NA","NA","NA","NA","NA","NA","NA","27","0","0","0","0","0","27","27","0","5.548777292341125","Mon Jun 24 16:21:07 2024","The main experiment item","False","05 Milestone_FullExperiment_V7.osexp","C:\Users\yarbus\Desktop\Team_Dog\Milestone5_Final","C:\Users\yarbus\AppData\Local\Temp\tmpwlg83d_n.opensesame_pool\stimuli.csv","stimuli.csv","False","mono","False","18","no","white","no","yes","1080","23","legacy","27","27","C:/Users/yarbus/Desktop/Team_Dog/Milestone5_Final/Datenerhebung/max.csv","legacy","Melodramatic Milgram","4.0.13","NA","NA","0","space","NA","1034.0","NA","1034","space","2","legacy","1024","2","48000","-16","experiment","NA","010.png","016.png","0","even","3689426.0","NA","3394851","3695945","3690928","NA","3695939","3689426","NA","3690928","NA","NA","3690938","NA","3696050","NA","NA","NA","NA","NA","NA","NA","NA","NA","NA","NA","NA","NA","3689017","3489927","3395897","3482697","NA","3394855","3689018","3696045","3394862","Left-Bias-Elimination","0","0","0","1920","0","0","320","-320"
"undefined","undefined","undefined","undefined","#3d3846","legacy","True","legacy","legacy","undefined","undefined","0","0","28","28","NA","28","28","NA","28","NA","NA","28","NA","28","NA","NA","NA","NA","NA","NA","NA","NA","NA","NA","NA","NA","NA","28","0","0","0","0","0","28","28","0","26.499990378866194","Mon Jun 24 16:21:07 2024","The main experiment item","False","05 Milestone_FullExperiment_V7.osexp","C:\Users\yarbus\Desktop\Team_Dog\Milestone5_Final","C:\Users\yarbus\AppData\Local\Temp\tmpwlg83d_n.opensesame_pool\stimuli.csv","stimuli.csv","False","mono","False","18","no","white","no","yes","1080","23","legacy","28","28","C:/Users/yarbus/Desktop/Team_Dog/Milestone5_Final/Datenerhebung/max.csv","legacy","Melodramatic Milgram","4.0.13","NA","NA","0","space","NA","1034.0","NA","1034","space","2","legacy","1024","2","48000","-16","experiment","NA","016.png","001.png","0","even","3696533.0","NA","3394851","3703221","3698206","NA","3703214","3696533","NA","3698206","NA","NA","3698214","NA","3703325","NA","NA","NA","NA","NA","NA","NA","NA","NA","NA","NA","NA","NA","3696123","3489927","3395897","3482697","NA","3394855","3696124","3703321","3394862","Left-Bias-Elimination","0","0","0","1920","277","-277","-160","160"
"undefined","undefined","undefined","undefined","#3d3846","legacy","True","legacy","legacy","undefined","undefined","0","0","29","29","NA","29","29","NA","29","NA","NA","29","NA","29","NA","NA","NA","NA","NA","NA","NA","NA","NA","NA","NA","NA","NA","29","0","0","0","0","0","29","29","0","24.940359609275852","Mon Jun 24 16:21:07 2024","The main experiment item","False","05 Milestone_FullExperiment_V7.osexp","C:\Users\yarbus\Desktop\Team_Dog\Milestone5_Final","C:\Users\yarbus\AppData\Local\Temp\tmpwlg83d_n.opensesame_pool\stimuli.csv","stimuli.csv","False","mono","False","18","no","white","no","yes","1080","23","legacy","29","29","C:/Users/yarbus/Desktop/Team_Dog/Milestone5_Final/Datenerhebung/max.csv","legacy","Melodramatic Milgram","4.0.13","NA","NA","0","space","NA","1034.0","NA","1034","space","2","legacy","1024","2","48000","-16","experiment","NA","009.png","018.png","0","even","3703830.0","NA","3394851","3711427","3706412","NA","3711421","3703830","NA","3706412","NA","NA","3706421","NA","3711531","NA","NA","NA","NA","NA","NA","NA","NA","NA","NA","NA","NA","NA","3703419","3489927","3395897","3482697","NA","3394855","3703421","3711527","3394862","Left-Bias-Elimination","0","0","0","1920","-160","160","-277","277"
"undefined","undefined","undefined","undefined","#3d3846","legacy","True","legacy","legacy","undefined","undefined","0","0","30","30","NA","30","30","NA","30","NA","NA","30","NA","30","NA","NA","NA","NA","NA","NA","NA","NA","NA","NA","NA","NA","NA","30","0","0","0","0","0","30","30","0","23.095127330240125","Mon Jun 24 16:21:07 2024","The main experiment item","False","05 Milestone_FullExperiment_V7.osexp","C:\Users\yarbus\Desktop\Team_Dog\Milestone5_Final","C:\Users\yarbus\AppData\Local\Temp\tmpwlg83d_n.opensesame_pool\stimuli.csv","stimuli.csv","False","mono","False","18","no","white","no","yes","1080","23","legacy","30","30","C:/Users/yarbus/Desktop/Team_Dog/Milestone5_Final/Datenerhebung/max.csv","legacy","Melodramatic Milgram","4.0.13","NA","NA","0","space","NA","1034.0","NA","1034","space","2","legacy","1024","2","48000","-16","experiment","NA","011.png","012.png","0","even","3712021.0","NA","3394851","3719334","3714317","NA","3719326","3712021","NA","3714317","NA","NA","3714325","NA","3719439","NA","NA","NA","NA","NA","NA","NA","NA","NA","NA","NA","NA","NA","3711609","3489927","3395897","3482697","NA","3394855","3711611","3719434","3394862","Left-Bias-Elimination","0","0","0","1920","-320","320","0","0"
"undefined","undefined","undefined","undefined","#3d3846","legacy","True","legacy","legacy","undefined","undefined","0","0","31","31","NA","31","31","NA","31","NA","NA","31","NA","31","NA","NA","NA","NA","NA","NA","NA","NA","NA","NA","NA","NA","NA","31","0","0","0","0","0","31","31","0","29.192714488378797","Mon Jun 24 16:21:07 2024","The main experiment item","False","05 Milestone_FullExperiment_V7.osexp","C:\Users\yarbus\Desktop\Team_Dog\Milestone5_Final","C:\Users\yarbus\AppData\Local\Temp\tmpwlg83d_n.opensesame_pool\stimuli.csv","stimuli.csv","False","mono","False","18","no","white","no","yes","1080","23","legacy","31","31","C:/Users/yarbus/Desktop/Team_Dog/Milestone5_Final/Datenerhebung/max.csv","legacy","Melodramatic Milgram","4.0.13","NA","NA","0","space","NA","1034.0","NA","1034","space","2","legacy","1024","2","48000","-16","experiment","NA","005.png","003.png","0","even","3719955.0","NA","3394851","3726518","3721503","NA","3726512","3719955","NA","3721503","NA","NA","3721512","NA","3726623","NA","NA","NA","NA","NA","NA","NA","NA","NA","NA","NA","NA","NA","3719542","3489927","3395897","3482697","NA","3394855","3719546","3726618","3394862","Left-Bias-Elimination","0","0","0","1920","277","-277","-160","160"
"undefined","undefined","undefined","undefined","#3d3846","legacy","True","legacy","legacy","undefined","undefined","0","0","32","32","NA","32","32","NA","32","NA","NA","32","NA","32","NA","NA","NA","NA","NA","NA","NA","NA","NA","NA","NA","NA","NA","32","0","0","0","0","0","32","32","0","28.461796710678584","Mon Jun 24 16:21:07 2024","The main experiment item","False","05 Milestone_FullExperiment_V7.osexp","C:\Users\yarbus\Desktop\Team_Dog\Milestone5_Final","C:\Users\yarbus\AppData\Local\Temp\tmpwlg83d_n.opensesame_pool\stimuli.csv","stimuli.csv","False","mono","False","18","no","white","no","yes","1080","23","legacy","32","32","C:/Users/yarbus/Desktop/Team_Dog/Milestone5_Final/Datenerhebung/max.csv","legacy","Melodramatic Milgram","4.0.13","NA","NA","0","space","NA","1034.0","NA","1034","space","2","legacy","1024","2","48000","-16","experiment","NA","008.png","014.png","0","even","3727137.0","NA","3394851","3733794","3728778","NA","3733785","3727137","NA","3728778","NA","NA","3728785","NA","3733898","NA","NA","NA","NA","NA","NA","NA","NA","NA","NA","NA","NA","NA","3726725","3489927","3395897","3482697","NA","3394855","3726728","3733894","3394862","Left-Bias-Elimination","0","0","0","1920","-320","320","0","0"
"undefined","undefined","undefined","undefined","#3d3846","legacy","True","legacy","legacy","undefined","undefined","0","0","33","33","NA","33","33","NA","33","NA","NA","33","NA","33","NA","NA","NA","NA","NA","NA","NA","NA","NA","NA","NA","NA","NA","33","0","0","0","0","0","33","33","0","12.20399999999995","Mon Jun 24 16:21:07 2024","The main experiment item","False","05 Milestone_FullExperiment_V7.osexp","C:\Users\yarbus\Desktop\Team_Dog\Milestone5_Final","C:\Users\yarbus\AppData\Local\Temp\tmpwlg83d_n.opensesame_pool\stimuli.csv","stimuli.csv","False","mono","False","18","no","white","no","yes","1080","23","legacy","33","33","C:/Users/yarbus/Desktop/Team_Dog/Milestone5_Final/Datenerhebung/max.csv","legacy","Melodramatic Milgram","4.0.13","NA","NA","0","space","NA","1034.0","NA","1034","space","2","legacy","1024","2","48000","-16","experiment","NA","003.png","011.png","0","even","3734399.0","NA","3394851","3740997","3735982","NA","3740990","3734399","NA","3735982","NA","NA","3735990","NA","3741101","NA","NA","NA","NA","NA","NA","NA","NA","NA","NA","NA","NA","NA","3733989","3489927","3395897","3482697","NA","3394855","3733991","3741097","3394862","Left-Bias-Elimination","0","0","0","1920","-277","277","-160","160"
"undefined","undefined","undefined","undefined","#3d3846","legacy","True","legacy","legacy","undefined","undefined","0","0","34","34","NA","34","34","NA","34","NA","NA","34","NA","34","NA","NA","NA","NA","NA","NA","NA","NA","NA","NA","NA","NA","NA","34","0","0","0","0","0","34","34","0","28.628577129853912","Mon Jun 24 16:21:07 2024","The main experiment item","False","05 Milestone_FullExperiment_V7.osexp","C:\Users\yarbus\Desktop\Team_Dog\Milestone5_Final","C:\Users\yarbus\AppData\Local\Temp\tmpwlg83d_n.opensesame_pool\stimuli.csv","stimuli.csv","False","mono","False","18","no","white","no","yes","1080","23","legacy","34","34","C:/Users/yarbus/Desktop/Team_Dog/Milestone5_Final/Datenerhebung/max.csv","legacy","Melodramatic Milgram","4.0.13","NA","NA","0","space","NA","1034.0","NA","1034","space","2","legacy","1024","2","48000","-16","experiment","NA","001.png","017.png","0","even","3741589.0","NA","3394851","3748217","3743199","NA","3748207","3741589","NA","3743199","NA","NA","3743207","NA","3748322","NA","NA","NA","NA","NA","NA","NA","NA","NA","NA","NA","NA","NA","3741179","3489927","3395897","3482697","NA","3394855","3741180","3748317","3394862","Left-Bias-Elimination","0","0","0","1920","160","-160","-277","277"
"undefined","undefined","undefined","undefined","#3d3846","legacy","True","legacy","legacy","undefined","undefined","0","0","35","35","NA","35","35","NA","35","NA","NA","35","NA","35","NA","NA","NA","NA","NA","NA","NA","NA","NA","NA","NA","NA","NA","35","0","0","0","0","0","35","35","0","25.633422011116608","Mon Jun 24 16:21:07 2024","The main experiment item","False","05 Milestone_FullExperiment_V7.osexp","C:\Users\yarbus\Desktop\Team_Dog\Milestone5_Final","C:\Users\yarbus\AppData\Local\Temp\tmpwlg83d_n.opensesame_pool\stimuli.csv","stimuli.csv","False","mono","False","18","no","white","no","yes","1080","23","legacy","35","35","C:/Users/yarbus/Desktop/Team_Dog/Milestone5_Final/Datenerhebung/max.csv","legacy","Melodramatic Milgram","4.0.13","NA","NA","0","space","NA","1034.0","NA","1034","space","2","legacy","1024","2","48000","-16","experiment","NA","013.png","015.png","0","even","3748815.0","NA","3394851","3755869","3750849","NA","3755862","3748815","NA","3750849","NA","NA","3750862","NA","3755973","NA","NA","NA","NA","NA","NA","NA","NA","NA","NA","NA","NA","NA","3748405","3489927","3395897","3482697","NA","3394855","3748406","3755969","3394862","Left-Bias-Elimination","0","0","0","1920","-160","160","-277","277"
"undefined","undefined","undefined","undefined","#3d3846","legacy","True","legacy","legacy","undefined","undefined","0","0","36","36","NA","36","36","NA","36","NA","NA","36","NA","36","NA","NA","NA","NA","NA","NA","NA","NA","NA","NA","NA","NA","NA","36","0","0","0","0","0","36","36","0","23.75096664643358","Mon Jun 24 16:21:07 2024","The main experiment item","False","05 Milestone_FullExperiment_V7.osexp","C:\Users\yarbus\Desktop\Team_Dog\Milestone5_Final","C:\Users\yarbus\AppData\Local\Temp\tmpwlg83d_n.opensesame_pool\stimuli.csv","stimuli.csv","False","mono","False","18","no","white","no","yes","1080","23","legacy","36","36","C:/Users/yarbus/Desktop/Team_Dog/Milestone5_Final/Datenerhebung/max.csv","legacy","Melodramatic Milgram","4.0.13","NA","NA","0","space","NA","1034.0","NA","1034","space","2","legacy","1024","2","48000","-16","experiment","NA","014.png","005.png","0","even","3756491.0","NA","3394851","3763027","3758008","NA","3763017","3756491","NA","3758008","NA","NA","3758017","NA","3763132","NA","NA","NA","NA","NA","NA","NA","NA","NA","NA","NA","NA","NA","3756080","3489927","3395897","3482697","NA","3394855","3756082","3763128","3394862","Left-Bias-Elimination","0","0","0","1920","160","-160","277","-277"
"undefined","undefined","undefined","undefined","#3d3846","legacy","True","legacy","legacy","undefined","undefined","0","0","37","37","NA","37","37","NA","37","NA","NA","37","NA","37","NA","NA","NA","NA","NA","NA","NA","NA","NA","NA","NA","NA","NA","37","0","0","0","0","0","37","37","0","24.546767418949507","Mon Jun 24 16:21:07 2024","The main experiment item","False","05 Milestone_FullExperiment_V7.osexp","C:\Users\yarbus\Desktop\Team_Dog\Milestone5_Final","C:\Users\yarbus\AppData\Local\Temp\tmpwlg83d_n.opensesame_pool\stimuli.csv","stimuli.csv","False","mono","False","18","no","white","no","yes","1080","23","legacy","37","37","C:/Users/yarbus/Desktop/Team_Dog/Milestone5_Final/Datenerhebung/max.csv","legacy","Melodramatic Milgram","4.0.13","NA","NA","0","space","NA","1034.0","NA","1034","space","2","legacy","1024","2","48000","-16","experiment","NA","006.png","002.png","0","even","3763627.0","NA","3394851","3770399","3765384","NA","3770392","3763627","NA","3765384","NA","NA","3765392","NA","3770503","NA","NA","NA","NA","NA","NA","NA","NA","NA","NA","NA","NA","NA","3763217","3489927","3395897","3482697","NA","3394855","3763218","3770499","3394862","Left-Bias-Elimination","0","0","0","1920","-160","160","277","-277"
"undefined","undefined","undefined","undefined","#3d3846","legacy","True","legacy","legacy","undefined","undefined","0","0","38","38","NA","38","38","NA","38","NA","NA","38","NA","38","NA","NA","NA","NA","NA","NA","NA","NA","NA","NA","NA","NA","NA","38","0","0","0","0","0","38","38","0","22.308496132191376","Mon Jun 24 16:21:07 2024","The main experiment item","False","05 Milestone_FullExperiment_V7.osexp","C:\Users\yarbus\Desktop\Team_Dog\Milestone5_Final","C:\Users\yarbus\AppData\Local\Temp\tmpwlg83d_n.opensesame_pool\stimuli.csv","stimuli.csv","False","mono","False","18","no","white","no","yes","1080","23","legacy","38","38","C:/Users/yarbus/Desktop/Team_Dog/Milestone5_Final/Datenerhebung/max.csv","legacy","Melodramatic Milgram","4.0.13","NA","NA","0","space","NA","1034.0","NA","1034","space","2","legacy","1024","2","48000","-16","experiment","NA","012.png","004.png","0","even","3770981.0","NA","3394851","3777893","3772874","NA","3777886","3770981","NA","3772874","NA","NA","3772886","NA","3777997","NA","NA","NA","NA","NA","NA","NA","NA","NA","NA","NA","NA","NA","3770570","3489927","3395897","3482697","NA","3394855","3770572","3777993","3394862","Left-Bias-Elimination","0","0","0","1920","277","-277","160","-160"
"undefined","undefined","undefined","undefined","#3d3846","legacy","True","legacy","legacy","undefined","undefined","0","0","39","39","NA","39","39","NA","39","NA","NA","39","NA","39","NA","NA","NA","NA","NA","NA","NA","NA","NA","NA","NA","NA","NA","39","0","0","0","0","0","39","39","0","20.116927701813783","Mon Jun 24 16:21:07 2024","The main experiment item","False","05 Milestone_FullExperiment_V7.osexp","C:\Users\yarbus\Desktop\Team_Dog\Milestone5_Final","C:\Users\yarbus\AppData\Local\Temp\tmpwlg83d_n.opensesame_pool\stimuli.csv","stimuli.csv","False","mono","False","18","no","white","no","yes","1080","23","legacy","39","39","C:/Users/yarbus/Desktop/Team_Dog/Milestone5_Final/Datenerhebung/max.csv","legacy","Melodramatic Milgram","4.0.13","NA","NA","0","space","NA","1034.0","NA","1034","space","2","legacy","1024","2","48000","-16","experiment","NA","019.png","021.png","0","even","3778509.0","NA","3394851","3785192","3780176","NA","3785187","3778509","NA","3780176","NA","NA","3780187","NA","3785297","NA","NA","NA","NA","NA","NA","NA","NA","NA","NA","NA","NA","NA","3778098","3489927","3395897","3482697","NA","3394855","3778099","3785293","3394862","Left-Bias-Elimination","0","0","0","1920","320","-320","0","0"
"undefined","undefined","undefined","undefined","#3d3846","legacy","True","legacy","legacy","undefined","undefined","0","0","40","40","NA","40","40","NA","40","NA","NA","40","NA","40","NA","NA","NA","NA","NA","NA","NA","NA","NA","NA","NA","NA","NA","40","0","0","0","0","0","40","40","0","15.691416762039012","Mon Jun 24 16:21:07 2024","The main experiment item","False","05 Milestone_FullExperiment_V7.osexp","C:\Users\yarbus\Desktop\Team_Dog\Milestone5_Final","C:\Users\yarbus\AppData\Local\Temp\tmpwlg83d_n.opensesame_pool\stimuli.csv","stimuli.csv","False","mono","False","18","no","white","no","yes","1080","23","legacy","40","40","C:/Users/yarbus/Desktop/Team_Dog/Milestone5_Final/Datenerhebung/max.csv","legacy","Melodramatic Milgram","4.0.13","NA","NA","0","space","NA","1034.0","NA","1034","space","2","legacy","1024","2","48000","-16","experiment","NA","015.png","007.png","0","even","3785803.0","NA","3394851","3792427","3787412","NA","3792420","3785803","NA","3787412","NA","NA","3787420","NA","3792531","NA","NA","NA","NA","NA","NA","NA","NA","NA","NA","NA","NA","NA","3785393","3489927","3395897","3482697","NA","3394855","3785394","3792527","3394862","Left-Bias-Elimination","0","0","0","1920","-277","277","160","-160"
"undefined","undefined","undefined","undefined","#3d3846","legacy","True","legacy","legacy","undefined","undefined","0","0","41","41","NA","41","41","NA","41","NA","NA","41","NA","41","NA","NA","NA","NA","NA","NA","NA","NA","NA","NA","NA","NA","NA","41","0","0","0","0","0","41","41","0","26.80771791257133","Mon Jun 24 16:21:07 2024","The main experiment item","False","05 Milestone_FullExperiment_V7.osexp","C:\Users\yarbus\Desktop\Team_Dog\Milestone5_Final","C:\Users\yarbus\AppData\Local\Temp\tmpwlg83d_n.opensesame_pool\stimuli.csv","stimuli.csv","False","mono","False","18","no","white","no","yes","1080","23","legacy","41","41","C:/Users/yarbus/Desktop/Team_Dog/Milestone5_Final/Datenerhebung/max.csv","legacy","Melodramatic Milgram","4.0.13","NA","NA","0","space","NA","1034.0","NA","1034","space","2","legacy","1024","2","48000","-16","experiment","NA","000.png","013.png","0","even","3793033.0","NA","3394851","3799736","3794715","NA","3799724","3793033","NA","3794715","NA","NA","3794724","NA","3799840","NA","NA","NA","NA","NA","NA","NA","NA","NA","NA","NA","NA","NA","3792619","3489927","3395897","3482697","NA","3394855","3792623","3799836","3394862","Left-Bias-Elimination","0","0","0","1920","320","-320","0","0"
"undefined","undefined","undefined","undefined","#3d3846","legacy","True","legacy","legacy","undefined","undefined","0","0","42","42","NA","42","42","NA","42","NA","NA","42","NA","42","NA","NA","NA","NA","NA","NA","NA","NA","NA","NA","NA","NA","NA","42","0","0","0","0","0","42","42","0","28.78573416677085","Mon Jun 24 16:21:07 2024","The main experiment item","False","05 Milestone_FullExperiment_V7.osexp","C:\Users\yarbus\Desktop\Team_Dog\Milestone5_Final","C:\Users\yarbus\AppData\Local\Temp\tmpwlg83d_n.opensesame_pool\stimuli.csv","stimuli.csv","False","mono","False","18","no","white","no","yes","1080","23","legacy","42","42","C:/Users/yarbus/Desktop/Team_Dog/Milestone5_Final/Datenerhebung/max.csv","legacy","Melodramatic Milgram","4.0.13","NA","NA","0","space","NA","1034.0","NA","1034","space","2","legacy","1024","2","48000","-16","experiment","NA","007.png","008.png","0","even","3800348.0","NA","3394851","3807011","3801994","NA","3807004","3800348","NA","3801995","NA","NA","3802003","NA","3807116","NA","NA","NA","NA","NA","NA","NA","NA","NA","NA","NA","NA","NA","3799938","3489927","3395897","3482697","NA","3394855","3799939","3807111","3394862","Left-Bias-Elimination","0","0","0","1920","160","-160","277","-277"
"undefined","undefined","undefined","undefined","#3d3846","legacy","True","legacy","legacy","undefined","undefined","0","0","43","43","NA","43","43","NA","43","NA","NA","43","NA","43","NA","NA","NA","NA","NA","NA","NA","NA","NA","NA","NA","NA","NA","43","0","0","0","0","0","43","43","0","29.865024319427576","Mon Jun 24 16:21:07 2024","The main experiment item","False","05 Milestone_FullExperiment_V7.osexp","C:\Users\yarbus\Desktop\Team_Dog\Milestone5_Final","C:\Users\yarbus\AppData\Local\Temp\tmpwlg83d_n.opensesame_pool\stimuli.csv","stimuli.csv","False","mono","False","18","no","white","no","yes","1080","23","legacy","43","43","C:/Users/yarbus/Desktop/Team_Dog/Milestone5_Final/Datenerhebung/max.csv","legacy","Melodramatic Milgram","4.0.13","NA","NA","0","space","NA","1034.0","NA","1034","space","2","legacy","1024","2","48000","-16","experiment","NA","020.png","020.png","0","even","3807630.0","NA","3394851","3815493","3810478","NA","3815486","3807630","NA","3810478","NA","NA","3810486","NA","3815598","NA","NA","NA","NA","NA","NA","NA","NA","NA","NA","NA","NA","NA","3807220","3489927","3395897","3482697","NA","3394855","3807221","3815593","3394862","Left-Bias-Elimination","0","0","0","1920","-277","277","160","-160"
"undefined","undefined","undefined","undefined","#3d3846","legacy","True","legacy","legacy","undefined","undefined","0","0","44","44","NA","44","44","NA","44","NA","NA","44","NA","44","NA","NA","NA","NA","NA","NA","NA","NA","NA","NA","NA","NA","NA","44","0","0","0","0","0","44","44","0","16.784811419852193","Mon Jun 24 16:21:07 2024","The main experiment item","False","05 Milestone_FullExperiment_V7.osexp","C:\Users\yarbus\Desktop\Team_Dog\Milestone5_Final","C:\Users\yarbus\AppData\Local\Temp\tmpwlg83d_n.opensesame_pool\stimuli.csv","stimuli.csv","False","mono","False","18","no","white","no","yes","1080","23","legacy","44","44","C:/Users/yarbus/Desktop/Team_Dog/Milestone5_Final/Datenerhebung/max.csv","legacy","Melodramatic Milgram","4.0.13","NA","NA","0","space","NA","1034.0","NA","1034","space","2","legacy","1024","2","48000","-16","experiment","NA","018.png","009.png","0","even","3816094.0","NA","3394851","3822675","3817655","NA","3822666","3816094","NA","3817655","NA","NA","3817666","NA","3822779","NA","NA","NA","NA","NA","NA","NA","NA","NA","NA","NA","NA","NA","3815684","3489927","3395897","3482697","NA","3394855","3815685","3822775","3394862","Left-Bias-Elimination","0","0","0","1920","0","0","-320","320"
"undefined","undefined","undefined","undefined","#3d3846","legacy","True","legacy","legacy","undefined","undefined","0","0","45","45","NA","45","45","NA","45","NA","NA","45","NA","45","NA","NA","NA","NA","NA","NA","NA","NA","NA","NA","NA","NA","NA","45","0","0","0","0","0","45","45","0","23.826477215064788","Mon Jun 24 16:21:07 2024","The main experiment item","False","05 Milestone_FullExperiment_V7.osexp","C:\Users\yarbus\Desktop\Team_Dog\Milestone5_Final","C:\Users\yarbus\AppData\Local\Temp\tmpwlg83d_n.opensesame_pool\stimuli.csv","stimuli.csv","False","mono","False","18","no","white","no","yes","1080","23","legacy","45","45","C:/Users/yarbus/Desktop/Team_Dog/Milestone5_Final/Datenerhebung/max.csv","legacy","Melodramatic Milgram","4.0.13","NA","NA","0","space","NA","1034.0","NA","1034","space","2","legacy","1024","2","48000","-16","experiment","NA","004.png","019.png","0","even","3823278.0","NA","3394851","3830544","3825525","NA","3830538","3823278","NA","3825525","NA","NA","3825538","NA","3830649","NA","NA","NA","NA","NA","NA","NA","NA","NA","NA","NA","NA","NA","3822868","3489927","3395897","3482697","NA","3394855","3822870","3830644","3394862","Left-Bias-Elimination","0","0","0","1920","277","-277","160","-160"
"undefined","undefined","undefined","undefined","#3d3846","legacy","True","legacy","legacy","undefined","undefined","0","0","46","46","NA","46","46","NA","46","NA","NA","46","NA","46","NA","NA","NA","NA","NA","NA","NA","NA","NA","NA","NA","NA","NA","46","0","0","0","0","0","46","46","0","25.13624953408921","Mon Jun 24 16:21:07 2024","The main experiment item","False","05 Milestone_FullExperiment_V7.osexp","C:\Users\yarbus\Desktop\Team_Dog\Milestone5_Final","C:\Users\yarbus\AppData\Local\Temp\tmpwlg83d_n.opensesame_pool\stimuli.csv","stimuli.csv","False","mono","False","18","no","white","no","yes","1080","23","legacy","46","46","C:/Users/yarbus/Desktop/Team_Dog/Milestone5_Final/Datenerhebung/max.csv","legacy","Melodramatic Milgram","4.0.13","NA","NA","0","space","NA","1034.0","NA","1034","space","2","legacy","1024","2","48000","-16","experiment","NA","004.png","019.png","0","even","3831139.0","NA","3394851","3838796","3833781","NA","3838790","3831139","NA","3833781","NA","NA","3833790","NA","3838900","NA","NA","NA","NA","NA","NA","NA","NA","NA","NA","NA","NA","NA","3830730","3489927","3395897","3482697","NA","3394855","3830731","3838896","3394862","Left-Bias-Elimination","0","0","0","1920","0","0","-320","320"
"undefined","undefined","undefined","undefined","#3d3846","legacy","True","legacy","legacy","undefined","undefined","0","0","47","47","NA","47","47","NA","47","NA","NA","47","NA","47","NA","NA","NA","NA","NA","NA","NA","NA","NA","NA","NA","NA","NA","47","0","0","0","0","0","47","47","0","28.894510925087538","Mon Jun 24 16:21:07 2024","The main experiment item","False","05 Milestone_FullExperiment_V7.osexp","C:\Users\yarbus\Desktop\Team_Dog\Milestone5_Final","C:\Users\yarbus\AppData\Local\Temp\tmpwlg83d_n.opensesame_pool\stimuli.csv","stimuli.csv","False","mono","False","18","no","white","no","yes","1080","23","legacy","47","47","C:/Users/yarbus/Desktop/Team_Dog/Milestone5_Final/Datenerhebung/max.csv","legacy","Melodramatic Milgram","4.0.13","NA","NA","0","space","NA","1034.0","NA","1034","space","2","legacy","1024","2","48000","-16","experiment","NA","018.png","009.png","0","even","3839407.0","NA","3394851","3846185","3841171","NA","3846179","3839407","NA","3841171","NA","NA","3841179","NA","3846289","NA","NA","NA","NA","NA","NA","NA","NA","NA","NA","NA","NA","NA","3838998","3489927","3395897","3482697","NA","3394855","3838999","3846285","3394862","Left-Bias-Elimination","0","0","0","1920","-160","160","277","-277"
