"acc","accuracy","average_response_time","avg_rt","background","canvas_backend","central_fixation","clock_backend","color_backend","correct","correct_welcome","count_end_sketchpad","count_experiment","count_fix_sketchpad","count_fixation","count_fixation_inline_script","count_fixation_pygaze_log","count_fixation_script","count_fixation_sketchpad","count_fixationstimulus_pygaze_log","count_getting_started","count_image_loop","count_image_stimulus","count_initial_fixation","count_logger","count_new_1_inline_script","count_new_1_loop","count_new_1_pygaze_log","count_new_1_sketchpad","count_new_2_inline_script","count_new_2_loop","count_new_2_pygaze_log","count_new_3_inline_script","count_new_3_loop","count_new_4_inline_script","count_new_4_loop","count_new_inline_script","count_new_loop","count_new_sequence","count_position_loop","count_pygaze_init","count_pygaze_start_recording","count_pygaze_stop_recording","count_shuffle_to_csv","count_start_pygaze_log","count_stop_pygaze_log","count_welcome","d","datetime","description","disable_garbage_collection","experiment_file","experiment_path","file_path","filename","font_bold","font_family","font_italic","font_size","font_underline","foreground","form_clicks","fullscreen","height","i","keyboard_backend","live_row","live_row_position_loop","logfile","mouse_backend","opensesame_codename","opensesame_version","picture1","picture2","repeat_cycle","response","response_end_sketchpad","response_time","response_time_end_sketchpad","response_time_welcome","response_welcome","round_decimals","sampler_backend","sound_buf_size","sound_channels","sound_freq","sound_sample_size","start","stimulus","stimulus1","stimulus2","subject_nr","subject_parity","t0","time_end_sketchpad","time_experiment","time_fix_sketchpad","time_fixation","time_fixation_inline_script","time_fixation_pygaze_log","time_fixation_script","time_fixation_sketchpad","time_fixationstimulus_pygaze_log","time_getting_started","time_image_loop","time_image_stimulus","time_initial_fixation","time_logger","time_new_1_inline_script","time_new_1_loop","time_new_1_pygaze_log","time_new_1_sketchpad","time_new_2_inline_script","time_new_2_loop","time_new_2_pygaze_log","time_new_3_inline_script","time_new_3_loop","time_new_4_inline_script","time_new_4_loop","time_new_inline_script","time_new_loop","time_new_sequence","time_position_loop","time_pygaze_init","time_pygaze_start_recording","time_pygaze_stop_recording","time_shuffle_to_csv","time_start_pygaze_log","time_stop_pygaze_log","time_welcome","title","total_correct","total_response_time","total_responses","width","x1_cor","x2_cor","y1_cor","y2_cor"
"undefined","undefined","undefined","undefined","#3d3846","legacy","False","legacy","legacy","undefined","undefined","0","0","0","0","NA","0","0","NA","0","NA","NA","0","NA","0","NA","NA","NA","NA","NA","NA","NA","NA","NA","NA","NA","NA","NA","0","0","0","0","0","0","0","0","0","88.601818029203","Mon Jun 24 16:29:50 2024","The main experiment item","False","05 Milestone_FullExperiment_V7.osexp","C:\Users\yarbus\Desktop\Team_Dog\Milestone5_Final","C:\Users\yarbus\AppData\Local\Temp\tmpwlg83d_n.opensesame_pool\stimuli.csv","stimuli.csv","False","mono","False","18","no","white","no","yes","1080","23","legacy","0","0","C:/Users/yarbus/Desktop/Team_Dog/Milestone5_Final/Datenerhebung/Enno.csv","legacy","Melodramatic Milgram","4.0.13","NA","NA","0","space","NA","17703.0","NA","17703","space","2","legacy","1024","2","48000","-16","experiment","NA","005.png","016.png","0","even","3992796.0","NA","3918416","4003309","3997799","NA","4003282","3992796","NA","3997799","NA","NA","3998282","NA","4003442","NA","NA","NA","NA","NA","NA","NA","NA","NA","NA","NA","NA","NA","3992261","3992150","3936161","3989386","NA","3918450","3992274","4003409","3918458","Left-Bias-Elimination","0","0","0","1920","-320","320","0","0"
"undefined","undefined","undefined","undefined","#3d3846","legacy","True","legacy","legacy","undefined","undefined","0","0","1","1","NA","1","1","NA","1","NA","NA","1","NA","1","NA","NA","NA","NA","NA","NA","NA","NA","NA","NA","NA","NA","NA","1","0","0","0","0","0","1","1","0","28.939208583511725","Mon Jun 24 16:29:50 2024","The main experiment item","False","05 Milestone_FullExperiment_V7.osexp","C:\Users\yarbus\Desktop\Team_Dog\Milestone5_Final","C:\Users\yarbus\AppData\Local\Temp\tmpwlg83d_n.opensesame_pool\stimuli.csv","stimuli.csv","False","mono","False","18","no","white","no","yes","1080","23","legacy","1","1","C:/Users/yarbus/Desktop/Team_Dog/Milestone5_Final/Datenerhebung/Enno.csv","legacy","Melodramatic Milgram","4.0.13","NA","NA","0","space","NA","17703.0","NA","17703","space","2","legacy","1024","2","48000","-16","experiment","NA","000.png","008.png","0","even","4004037.0","NA","3918416","4010618","4005603","NA","4010610","4004037","NA","4005603","NA","NA","4005610","NA","4010722","NA","NA","NA","NA","NA","NA","NA","NA","NA","NA","NA","NA","NA","4003558","3992150","3936161","3989386","NA","3918450","4003560","4010718","3918458","Left-Bias-Elimination","0","0","0","1920","160","-160","-277","277"
"undefined","undefined","undefined","undefined","#3d3846","legacy","True","legacy","legacy","undefined","undefined","0","0","2","2","NA","2","2","NA","2","NA","NA","2","NA","2","NA","NA","NA","NA","NA","NA","NA","NA","NA","NA","NA","NA","NA","2","0","0","0","0","0","2","2","0","26.79183756295939","Mon Jun 24 16:29:50 2024","The main experiment item","False","05 Milestone_FullExperiment_V7.osexp","C:\Users\yarbus\Desktop\Team_Dog\Milestone5_Final","C:\Users\yarbus\AppData\Local\Temp\tmpwlg83d_n.opensesame_pool\stimuli.csv","stimuli.csv","False","mono","False","18","no","white","no","yes","1080","23","legacy","2","2","C:/Users/yarbus/Desktop/Team_Dog/Milestone5_Final/Datenerhebung/Enno.csv","legacy","Melodramatic Milgram","4.0.13","NA","NA","0","space","NA","17703.0","NA","17703","space","2","legacy","1024","2","48000","-16","experiment","NA","007.png","010.png","0","even","4011276.0","NA","3918416","4018239","4013194","NA","4018229","4011276","NA","4013194","NA","NA","4013226","NA","4018343","NA","NA","NA","NA","NA","NA","NA","NA","NA","NA","NA","NA","NA","4010808","3992150","3936161","3989386","NA","3918450","4010810","4018339","3918458","Left-Bias-Elimination","0","0","0","1920","-160","160","-277","277"
"undefined","undefined","undefined","undefined","#3d3846","legacy","True","legacy","legacy","undefined","undefined","0","0","3","3","NA","3","3","NA","3","NA","NA","3","NA","3","NA","NA","NA","NA","NA","NA","NA","NA","NA","NA","NA","NA","NA","3","0","0","0","0","0","3","3","0","26.223353552129804","Mon Jun 24 16:29:50 2024","The main experiment item","False","05 Milestone_FullExperiment_V7.osexp","C:\Users\yarbus\Desktop\Team_Dog\Milestone5_Final","C:\Users\yarbus\AppData\Local\Temp\tmpwlg83d_n.opensesame_pool\stimuli.csv","stimuli.csv","False","mono","False","18","no","white","no","yes","1080","23","legacy","3","3","C:/Users/yarbus/Desktop/Team_Dog/Milestone5_Final/Datenerhebung/Enno.csv","legacy","Melodramatic Milgram","4.0.13","NA","NA","0","space","NA","17703.0","NA","17703","space","2","legacy","1024","2","48000","-16","experiment","NA","001.png","001.png","0","even","4018906.0","NA","3918416","4025558","4020544","NA","4025552","4018906","NA","4020544","NA","NA","4020552","NA","4025662","NA","NA","NA","NA","NA","NA","NA","NA","NA","NA","NA","NA","NA","4018429","3992150","3936161","3989386","NA","3918450","4018432","4025658","3918458","Left-Bias-Elimination","0","0","0","1920","0","0","320","-320"
"undefined","undefined","undefined","undefined","#3d3846","legacy","True","legacy","legacy","undefined","undefined","0","0","4","4","NA","4","4","NA","4","NA","NA","4","NA","4","NA","NA","NA","NA","NA","NA","NA","NA","NA","NA","NA","NA","NA","4","0","0","0","0","0","4","4","0","24.564346455788343","Mon Jun 24 16:29:50 2024","The main experiment item","False","05 Milestone_FullExperiment_V7.osexp","C:\Users\yarbus\Desktop\Team_Dog\Milestone5_Final","C:\Users\yarbus\AppData\Local\Temp\tmpwlg83d_n.opensesame_pool\stimuli.csv","stimuli.csv","False","mono","False","18","no","white","no","yes","1080","23","legacy","4","4","C:/Users/yarbus/Desktop/Team_Dog/Milestone5_Final/Datenerhebung/Enno.csv","legacy","Melodramatic Milgram","4.0.13","NA","NA","0","space","NA","17703.0","NA","17703","space","2","legacy","1024","2","48000","-16","experiment","NA","021.png","003.png","0","even","4026223.0","NA","3918416","4032849","4027831","NA","4032841","4026223","NA","4027831","NA","NA","4027841","NA","4032953","NA","NA","NA","NA","NA","NA","NA","NA","NA","NA","NA","NA","NA","4025744","3992150","3936161","3989386","NA","3918450","4025745","4032949","3918458","Left-Bias-Elimination","0","0","0","1920","277","-277","-160","160"
"undefined","undefined","undefined","undefined","#3d3846","legacy","True","legacy","legacy","undefined","undefined","0","0","5","5","NA","5","5","NA","5","NA","NA","5","NA","5","NA","NA","NA","NA","NA","NA","NA","NA","NA","NA","NA","NA","NA","5","0","0","0","0","0","5","5","0","23.151662540733437","Mon Jun 24 16:29:50 2024","The main experiment item","False","05 Milestone_FullExperiment_V7.osexp","C:\Users\yarbus\Desktop\Team_Dog\Milestone5_Final","C:\Users\yarbus\AppData\Local\Temp\tmpwlg83d_n.opensesame_pool\stimuli.csv","stimuli.csv","False","mono","False","18","no","white","no","yes","1080","23","legacy","5","5","C:/Users/yarbus/Desktop/Team_Dog/Milestone5_Final/Datenerhebung/Enno.csv","legacy","Melodramatic Milgram","4.0.13","NA","NA","0","space","NA","17703.0","NA","17703","space","2","legacy","1024","2","48000","-16","experiment","NA","019.png","021.png","0","even","4033496.0","NA","3918416","4040218","4035199","NA","4040208","4033496","NA","4035199","NA","NA","4035208","NA","4040322","NA","NA","NA","NA","NA","NA","NA","NA","NA","NA","NA","NA","NA","4033049","3992150","3936161","3989386","NA","3918450","4033054","4040318","3918458","Left-Bias-Elimination","0","0","0","1920","-320","320","0","0"
"undefined","undefined","undefined","undefined","#3d3846","legacy","True","legacy","legacy","undefined","undefined","0","0","6","6","NA","6","6","NA","6","NA","NA","6","NA","6","NA","NA","NA","NA","NA","NA","NA","NA","NA","NA","NA","NA","NA","6","0","0","0","0","0","6","6","0","24.438223176000253","Mon Jun 24 16:29:50 2024","The main experiment item","False","05 Milestone_FullExperiment_V7.osexp","C:\Users\yarbus\Desktop\Team_Dog\Milestone5_Final","C:\Users\yarbus\AppData\Local\Temp\tmpwlg83d_n.opensesame_pool\stimuli.csv","stimuli.csv","False","mono","False","18","no","white","no","yes","1080","23","legacy","6","6","C:/Users/yarbus/Desktop/Team_Dog/Milestone5_Final/Datenerhebung/Enno.csv","legacy","Melodramatic Milgram","4.0.13","NA","NA","0","space","NA","17703.0","NA","17703","space","2","legacy","1024","2","48000","-16","experiment","NA","014.png","013.png","0","even","4040885.0","NA","3918416","4047415","4042396","NA","4047404","4040885","NA","4042396","NA","NA","4042404","NA","4047519","NA","NA","NA","NA","NA","NA","NA","NA","NA","NA","NA","NA","NA","4040409","3992150","3936161","3989386","NA","3918450","4040410","4047515","3918458","Left-Bias-Elimination","0","0","0","1920","-277","277","-160","160"
"undefined","undefined","undefined","undefined","#3d3846","legacy","True","legacy","legacy","undefined","undefined","0","0","7","7","NA","7","7","NA","7","NA","NA","7","NA","7","NA","NA","NA","NA","NA","NA","NA","NA","NA","NA","NA","NA","NA","7","0","0","0","0","0","7","7","0","23.012335422551047","Mon Jun 24 16:29:50 2024","The main experiment item","False","05 Milestone_FullExperiment_V7.osexp","C:\Users\yarbus\Desktop\Team_Dog\Milestone5_Final","C:\Users\yarbus\AppData\Local\Temp\tmpwlg83d_n.opensesame_pool\stimuli.csv","stimuli.csv","False","mono","False","18","no","white","no","yes","1080","23","legacy","7","7","C:/Users/yarbus/Desktop/Team_Dog/Milestone5_Final/Datenerhebung/Enno.csv","legacy","Melodramatic Milgram","4.0.13","NA","NA","0","space","NA","17703.0","NA","17703","space","2","legacy","1024","2","48000","-16","experiment","NA","003.png","015.png","0","even","4048051.0","NA","3918416","4054674","4049642","NA","4054655","4048051","NA","4049642","NA","NA","4049655","NA","4054778","NA","NA","NA","NA","NA","NA","NA","NA","NA","NA","NA","NA","NA","4047615","3992150","3936161","3989386","NA","3918450","4047617","4054774","3918458","Left-Bias-Elimination","0","0","0","1920","-277","277","-160","160"
"undefined","undefined","undefined","undefined","#3d3846","legacy","True","legacy","legacy","undefined","undefined","0","0","8","8","NA","8","8","NA","8","NA","NA","8","NA","8","NA","NA","NA","NA","NA","NA","NA","NA","NA","NA","NA","NA","NA","8","0","0","0","0","0","8","8","0","21.692674291566746","Mon Jun 24 16:29:50 2024","The main experiment item","False","05 Milestone_FullExperiment_V7.osexp","C:\Users\yarbus\Desktop\Team_Dog\Milestone5_Final","C:\Users\yarbus\AppData\Local\Temp\tmpwlg83d_n.opensesame_pool\stimuli.csv","stimuli.csv","False","mono","False","18","no","white","no","yes","1080","23","legacy","8","8","C:/Users/yarbus/Desktop/Team_Dog/Milestone5_Final/Datenerhebung/Enno.csv","legacy","Melodramatic Milgram","4.0.13","NA","NA","0","space","NA","17703.0","NA","17703","space","2","legacy","1024","2","48000","-16","experiment","NA","020.png","004.png","0","even","4055294.0","NA","3918416","4062125","4057112","NA","4062119","4055294","NA","4057112","NA","NA","4057119","NA","4062229","NA","NA","NA","NA","NA","NA","NA","NA","NA","NA","NA","NA","NA","4054859","3992150","3936161","3989386","NA","3918450","4054861","4062225","3918458","Left-Bias-Elimination","0","0","0","1920","160","-160","-277","277"
"undefined","undefined","undefined","undefined","#3d3846","legacy","True","legacy","legacy","undefined","undefined","0","0","9","9","NA","9","9","NA","9","NA","NA","9","NA","9","NA","NA","NA","NA","NA","NA","NA","NA","NA","NA","NA","NA","NA","9","0","0","0","0","0","9","9","0","12.763585627871167","Mon Jun 24 16:29:50 2024","The main experiment item","False","05 Milestone_FullExperiment_V7.osexp","C:\Users\yarbus\Desktop\Team_Dog\Milestone5_Final","C:\Users\yarbus\AppData\Local\Temp\tmpwlg83d_n.opensesame_pool\stimuli.csv","stimuli.csv","False","mono","False","18","no","white","no","yes","1080","23","legacy","9","9","C:/Users/yarbus/Desktop/Team_Dog/Milestone5_Final/Datenerhebung/Enno.csv","legacy","Melodramatic Milgram","4.0.13","NA","NA","0","space","NA","17703.0","NA","17703","space","2","legacy","1024","2","48000","-16","experiment","NA","011.png","020.png","0","even","4062759.0","NA","3918416","4069499","4064479","NA","4069492","4062759","NA","4064479","NA","NA","4064492","NA","4069603","NA","NA","NA","NA","NA","NA","NA","NA","NA","NA","NA","NA","NA","4062309","3992150","3936161","3989386","NA","3918450","4062311","4069599","3918458","Left-Bias-Elimination","0","0","0","1920","-160","160","-277","277"
"undefined","undefined","undefined","undefined","#3d3846","legacy","True","legacy","legacy","undefined","undefined","0","0","10","10","NA","10","10","NA","10","NA","NA","10","NA","10","NA","NA","NA","NA","NA","NA","NA","NA","NA","NA","NA","NA","NA","10","0","0","0","0","0","10","10","0","10.214440601423055","Mon Jun 24 16:29:50 2024","The main experiment item","False","05 Milestone_FullExperiment_V7.osexp","C:\Users\yarbus\Desktop\Team_Dog\Milestone5_Final","C:\Users\yarbus\AppData\Local\Temp\tmpwlg83d_n.opensesame_pool\stimuli.csv","stimuli.csv","False","mono","False","18","no","white","no","yes","1080","23","legacy","10","10","C:/Users/yarbus/Desktop/Team_Dog/Milestone5_Final/Datenerhebung/Enno.csv","legacy","Melodramatic Milgram","4.0.13","NA","NA","0","space","NA","17703.0","NA","17703","space","2","legacy","1024","2","48000","-16","experiment","NA","006.png","006.png","0","even","4070133.0","NA","3918416","4076932","4071913","NA","4076924","4070133","NA","4071913","NA","NA","4071923","NA","4077036","NA","NA","NA","NA","NA","NA","NA","NA","NA","NA","NA","NA","NA","4069691","3992150","3936161","3989386","NA","3918450","4069695","4077032","3918458","Left-Bias-Elimination","0","0","0","1920","277","-277","-160","160"
"undefined","undefined","undefined","undefined","#3d3846","legacy","True","legacy","legacy","undefined","undefined","0","0","11","11","NA","11","11","NA","11","NA","NA","11","NA","11","NA","NA","NA","NA","NA","NA","NA","NA","NA","NA","NA","NA","NA","11","0","0","0","0","0","11","11","0","4.133734389145032","Mon Jun 24 16:29:50 2024","The main experiment item","False","05 Milestone_FullExperiment_V7.osexp","C:\Users\yarbus\Desktop\Team_Dog\Milestone5_Final","C:\Users\yarbus\AppData\Local\Temp\tmpwlg83d_n.opensesame_pool\stimuli.csv","stimuli.csv","False","mono","False","18","no","white","no","yes","1080","23","legacy","11","11","C:/Users/yarbus/Desktop/Team_Dog/Milestone5_Final/Datenerhebung/Enno.csv","legacy","Melodramatic Milgram","4.0.13","NA","NA","0","space","NA","17703.0","NA","17703","space","2","legacy","1024","2","48000","-16","experiment","NA","004.png","005.png","0","even","4077566.0","NA","3918416","4084112","4079094","NA","4084105","4077566","NA","4079094","NA","NA","4079105","NA","4084217","NA","NA","NA","NA","NA","NA","NA","NA","NA","NA","NA","NA","NA","4077117","3992150","3936161","3989386","NA","3918450","4077119","4084212","3918458","Left-Bias-Elimination","0","0","0","1920","0","0","320","-320"
"undefined","undefined","undefined","undefined","#3d3846","legacy","True","legacy","legacy","undefined","undefined","0","0","12","12","NA","12","12","NA","12","NA","NA","12","NA","12","NA","NA","NA","NA","NA","NA","NA","NA","NA","NA","NA","NA","NA","12","0","0","0","0","0","12","12","0","11.293874764667782","Mon Jun 24 16:29:50 2024","The main experiment item","False","05 Milestone_FullExperiment_V7.osexp","C:\Users\yarbus\Desktop\Team_Dog\Milestone5_Final","C:\Users\yarbus\AppData\Local\Temp\tmpwlg83d_n.opensesame_pool\stimuli.csv","stimuli.csv","False","mono","False","18","no","white","no","yes","1080","23","legacy","12","12","C:/Users/yarbus/Desktop/Team_Dog/Milestone5_Final/Datenerhebung/Enno.csv","legacy","Melodramatic Milgram","4.0.13","NA","NA","0","space","NA","17703.0","NA","17703","space","2","legacy","1024","2","48000","-16","experiment","NA","002.png","018.png","0","even","4084761.0","NA","3918416","4091355","4086341","NA","4091349","4084761","NA","4086341","NA","NA","4086349","NA","4091459","NA","NA","NA","NA","NA","NA","NA","NA","NA","NA","NA","NA","NA","4084292","3992150","3936161","3989386","NA","3918450","4084294","4091455","3918458","Left-Bias-Elimination","0","0","0","1920","0","0","-320","320"
"undefined","undefined","undefined","undefined","#3d3846","legacy","True","legacy","legacy","undefined","undefined","0","0","13","13","NA","13","13","NA","13","NA","NA","13","NA","13","NA","NA","NA","NA","NA","NA","NA","NA","NA","NA","NA","NA","NA","13","0","0","0","0","0","13","13","0","18.242908544417975","Mon Jun 24 16:29:50 2024","The main experiment item","False","05 Milestone_FullExperiment_V7.osexp","C:\Users\yarbus\Desktop\Team_Dog\Milestone5_Final","C:\Users\yarbus\AppData\Local\Temp\tmpwlg83d_n.opensesame_pool\stimuli.csv","stimuli.csv","False","mono","False","18","no","white","no","yes","1080","23","legacy","13","13","C:/Users/yarbus/Desktop/Team_Dog/Milestone5_Final/Datenerhebung/Enno.csv","legacy","Melodramatic Milgram","4.0.13","NA","NA","0","space","NA","17703.0","NA","17703","space","2","legacy","1024","2","48000","-16","experiment","NA","015.png","014.png","0","even","4092008.0","NA","3918416","4098598","4093580","NA","4098591","4092008","NA","4093580","NA","NA","4093591","NA","4098702","NA","NA","NA","NA","NA","NA","NA","NA","NA","NA","NA","NA","NA","4091549","3992150","3936161","3989386","NA","3918450","4091551","4098698","3918458","Left-Bias-Elimination","0","0","0","1920","-277","277","160","-160"
"undefined","undefined","undefined","undefined","#3d3846","legacy","True","legacy","legacy","undefined","undefined","0","0","14","14","NA","14","14","NA","14","NA","NA","14","NA","14","NA","NA","NA","NA","NA","NA","NA","NA","NA","NA","NA","NA","NA","14","0","0","0","0","0","14","14","0","21.649246394274268","Mon Jun 24 16:29:50 2024","The main experiment item","False","05 Milestone_FullExperiment_V7.osexp","C:\Users\yarbus\Desktop\Team_Dog\Milestone5_Final","C:\Users\yarbus\AppData\Local\Temp\tmpwlg83d_n.opensesame_pool\stimuli.csv","stimuli.csv","False","mono","False","18","no","white","no","yes","1080","23","legacy","14","14","C:/Users/yarbus/Desktop/Team_Dog/Milestone5_Final/Datenerhebung/Enno.csv","legacy","Melodramatic Milgram","4.0.13","NA","NA","0","space","NA","17703.0","NA","17703","space","2","legacy","1024","2","48000","-16","experiment","NA","008.png","007.png","0","even","4099266.0","NA","3918416","4105787","4100770","NA","4105780","4099266","NA","4100770","NA","NA","4100780","NA","4105892","NA","NA","NA","NA","NA","NA","NA","NA","NA","NA","NA","NA","NA","4098806","3992150","3936161","3989386","NA","3918450","4098808","4105888","3918458","Left-Bias-Elimination","0","0","0","1920","160","-160","277","-277"
"undefined","undefined","undefined","undefined","#3d3846","legacy","True","legacy","legacy","undefined","undefined","0","0","15","15","NA","15","15","NA","15","NA","NA","15","NA","15","NA","NA","NA","NA","NA","NA","NA","NA","NA","NA","NA","NA","NA","15","0","0","0","0","0","15","15","0","12.390997616011338","Mon Jun 24 16:29:50 2024","The main experiment item","False","05 Milestone_FullExperiment_V7.osexp","C:\Users\yarbus\Desktop\Team_Dog\Milestone5_Final","C:\Users\yarbus\AppData\Local\Temp\tmpwlg83d_n.opensesame_pool\stimuli.csv","stimuli.csv","False","mono","False","18","no","white","no","yes","1080","23","legacy","15","15","C:/Users/yarbus/Desktop/Team_Dog/Milestone5_Final/Datenerhebung/Enno.csv","legacy","Melodramatic Milgram","4.0.13","NA","NA","0","space","NA","17703.0","NA","17703","space","2","legacy","1024","2","48000","-16","experiment","NA","017.png","019.png","0","even","4106474.0","NA","3918416","4113034","4108021","NA","4113028","4106474","NA","4108021","NA","NA","4108028","NA","4113138","NA","NA","NA","NA","NA","NA","NA","NA","NA","NA","NA","NA","NA","4105992","3992150","3936161","3989386","NA","3918450","4105993","4113134","3918458","Left-Bias-Elimination","0","0","0","1920","-160","160","277","-277"
"undefined","undefined","undefined","undefined","#3d3846","legacy","True","legacy","legacy","undefined","undefined","0","0","16","16","NA","16","16","NA","16","NA","NA","16","NA","16","NA","NA","NA","NA","NA","NA","NA","NA","NA","NA","NA","NA","NA","16","0","0","0","0","0","16","16","0","22.517413549517563","Mon Jun 24 16:29:50 2024","The main experiment item","False","05 Milestone_FullExperiment_V7.osexp","C:\Users\yarbus\Desktop\Team_Dog\Milestone5_Final","C:\Users\yarbus\AppData\Local\Temp\tmpwlg83d_n.opensesame_pool\stimuli.csv","stimuli.csv","False","mono","False","18","no","white","no","yes","1080","23","legacy","16","16","C:/Users/yarbus/Desktop/Team_Dog/Milestone5_Final/Datenerhebung/Enno.csv","legacy","Melodramatic Milgram","4.0.13","NA","NA","0","space","NA","17703.0","NA","17703","space","2","legacy","1024","2","48000","-16","experiment","NA","010.png","011.png","0","even","4113682.0","NA","3918416","4120312","4115296","NA","4120305","4113682","NA","4115296","NA","NA","4115305","NA","4120416","NA","NA","NA","NA","NA","NA","NA","NA","NA","NA","NA","NA","NA","4113226","3992150","3936161","3989386","NA","3918450","4113228","4120412","3918458","Left-Bias-Elimination","0","0","0","1920","277","-277","160","-160"
"undefined","undefined","undefined","undefined","#3d3846","legacy","True","legacy","legacy","undefined","undefined","0","0","17","17","NA","17","17","NA","17","NA","NA","17","NA","17","NA","NA","NA","NA","NA","NA","NA","NA","NA","NA","NA","NA","NA","17","0","0","0","0","0","17","17","0","29.040525044840393","Mon Jun 24 16:29:50 2024","The main experiment item","False","05 Milestone_FullExperiment_V7.osexp","C:\Users\yarbus\Desktop\Team_Dog\Milestone5_Final","C:\Users\yarbus\AppData\Local\Temp\tmpwlg83d_n.opensesame_pool\stimuli.csv","stimuli.csv","False","mono","False","18","no","white","no","yes","1080","23","legacy","17","17","C:/Users/yarbus/Desktop/Team_Dog/Milestone5_Final/Datenerhebung/Enno.csv","legacy","Melodramatic Milgram","4.0.13","NA","NA","0","space","NA","17703.0","NA","17703","space","2","legacy","1024","2","48000","-16","experiment","NA","016.png","009.png","0","even","4120930.0","NA","3918416","4127452","4122432","NA","4127446","4120930","NA","4122432","NA","NA","4122446","NA","4127556","NA","NA","NA","NA","NA","NA","NA","NA","NA","NA","NA","NA","NA","4120491","3992150","3936161","3989386","NA","3918450","4120493","4127552","3918458","Left-Bias-Elimination","0","0","0","1920","277","-277","160","-160"
"undefined","undefined","undefined","undefined","#3d3846","legacy","True","legacy","legacy","undefined","undefined","0","0","18","18","NA","18","18","NA","18","NA","NA","18","NA","18","NA","NA","NA","NA","NA","NA","NA","NA","NA","NA","NA","NA","NA","18","0","0","0","0","0","18","18","0","24.040888529336847","Mon Jun 24 16:29:50 2024","The main experiment item","False","05 Milestone_FullExperiment_V7.osexp","C:\Users\yarbus\Desktop\Team_Dog\Milestone5_Final","C:\Users\yarbus\AppData\Local\Temp\tmpwlg83d_n.opensesame_pool\stimuli.csv","stimuli.csv","False","mono","False","18","no","white","no","yes","1080","23","legacy","18","18","C:/Users/yarbus/Desktop/Team_Dog/Milestone5_Final/Datenerhebung/Enno.csv","legacy","Melodramatic Milgram","4.0.13","NA","NA","0","space","NA","17703.0","NA","17703","space","2","legacy","1024","2","48000","-16","experiment","NA","013.png","000.png","0","even","4128112.0","NA","3918416","4134668","4129646","NA","4134659","4128112","NA","4129646","NA","NA","4129659","NA","4134772","NA","NA","NA","NA","NA","NA","NA","NA","NA","NA","NA","NA","NA","4127648","3992150","3936161","3989386","NA","3918450","4127649","4134768","3918458","Left-Bias-Elimination","0","0","0","1920","320","-320","0","0"
"undefined","undefined","undefined","undefined","#3d3846","legacy","True","legacy","legacy","undefined","undefined","0","0","19","19","NA","19","19","NA","19","NA","NA","19","NA","19","NA","NA","NA","NA","NA","NA","NA","NA","NA","NA","NA","NA","NA","19","0","0","0","0","0","19","19","0","27.156045099388056","Mon Jun 24 16:29:50 2024","The main experiment item","False","05 Milestone_FullExperiment_V7.osexp","C:\Users\yarbus\Desktop\Team_Dog\Milestone5_Final","C:\Users\yarbus\AppData\Local\Temp\tmpwlg83d_n.opensesame_pool\stimuli.csv","stimuli.csv","False","mono","False","18","no","white","no","yes","1080","23","legacy","19","19","C:/Users/yarbus/Desktop/Team_Dog/Milestone5_Final/Datenerhebung/Enno.csv","legacy","Melodramatic Milgram","4.0.13","NA","NA","0","space","NA","17703.0","NA","17703","space","2","legacy","1024","2","48000","-16","experiment","NA","018.png","012.png","0","even","4135291.0","NA","3918416","4141813","4136796","NA","4141806","4135291","NA","4136796","NA","NA","4136806","NA","4141918","NA","NA","NA","NA","NA","NA","NA","NA","NA","NA","NA","NA","NA","4134855","3992150","3936161","3989386","NA","3918450","4134857","4141913","3918458","Left-Bias-Elimination","0","0","0","1920","-277","277","160","-160"
"undefined","undefined","undefined","undefined","#3d3846","legacy","True","legacy","legacy","undefined","undefined","0","0","20","20","NA","20","20","NA","20","NA","NA","20","NA","20","NA","NA","NA","NA","NA","NA","NA","NA","NA","NA","NA","NA","NA","20","0","0","0","0","0","20","20","0","24.325092496432465","Mon Jun 24 16:29:50 2024","The main experiment item","False","05 Milestone_FullExperiment_V7.osexp","C:\Users\yarbus\Desktop\Team_Dog\Milestone5_Final","C:\Users\yarbus\AppData\Local\Temp\tmpwlg83d_n.opensesame_pool\stimuli.csv","stimuli.csv","False","mono","False","18","no","white","no","yes","1080","23","legacy","20","20","C:/Users/yarbus/Desktop/Team_Dog/Milestone5_Final/Datenerhebung/Enno.csv","legacy","Melodramatic Milgram","4.0.13","NA","NA","0","space","NA","17703.0","NA","17703","space","2","legacy","1024","2","48000","-16","experiment","NA","009.png","017.png","0","even","4142454.0","NA","3918416","4148976","4143957","NA","4148968","4142454","NA","4143957","NA","NA","4143968","NA","4149080","NA","NA","NA","NA","NA","NA","NA","NA","NA","NA","NA","NA","NA","4142006","3992150","3936161","3989386","NA","3918450","4142009","4149076","3918458","Left-Bias-Elimination","0","0","0","1920","0","0","-320","320"
"undefined","undefined","undefined","undefined","#3d3846","legacy","True","legacy","legacy","undefined","undefined","0","0","21","21","NA","21","21","NA","21","NA","NA","21","NA","21","NA","NA","NA","NA","NA","NA","NA","NA","NA","NA","NA","NA","NA","21","0","0","0","0","0","21","21","0","20.370748157100213","Mon Jun 24 16:29:50 2024","The main experiment item","False","05 Milestone_FullExperiment_V7.osexp","C:\Users\yarbus\Desktop\Team_Dog\Milestone5_Final","C:\Users\yarbus\AppData\Local\Temp\tmpwlg83d_n.opensesame_pool\stimuli.csv","stimuli.csv","False","mono","False","18","no","white","no","yes","1080","23","legacy","21","21","C:/Users/yarbus/Desktop/Team_Dog/Milestone5_Final/Datenerhebung/Enno.csv","legacy","Melodramatic Milgram","4.0.13","NA","NA","0","space","NA","17703.0","NA","17703","space","2","legacy","1024","2","48000","-16","experiment","NA","012.png","002.png","0","even","4149617.0","NA","3918416","4156138","4151119","NA","4156127","4149617","NA","4151119","NA","NA","4151127","NA","4156243","NA","NA","NA","NA","NA","NA","NA","NA","NA","NA","NA","NA","NA","4149167","3992150","3936161","3989386","NA","3918450","4149169","4156239","3918458","Left-Bias-Elimination","0","0","0","1920","160","-160","277","-277"
"undefined","undefined","undefined","undefined","#3d3846","legacy","True","legacy","legacy","undefined","undefined","0","0","22","22","NA","22","22","NA","22","NA","NA","22","NA","22","NA","NA","NA","NA","NA","NA","NA","NA","NA","NA","NA","NA","NA","22","0","0","0","0","0","22","22","0","24.64620659493052","Mon Jun 24 16:29:50 2024","The main experiment item","False","05 Milestone_FullExperiment_V7.osexp","C:\Users\yarbus\Desktop\Team_Dog\Milestone5_Final","C:\Users\yarbus\AppData\Local\Temp\tmpwlg83d_n.opensesame_pool\stimuli.csv","stimuli.csv","False","mono","False","18","no","white","no","yes","1080","23","legacy","22","22","C:/Users/yarbus/Desktop/Team_Dog/Milestone5_Final/Datenerhebung/Enno.csv","legacy","Melodramatic Milgram","4.0.13","NA","NA","0","space","NA","17703.0","NA","17703","space","2","legacy","1024","2","48000","-16","experiment","NA","012.png","002.png","0","even","4156736.0","NA","3918416","4163255","4158238","NA","4163247","4156736","NA","4158239","NA","NA","4158247","NA","4163359","NA","NA","NA","NA","NA","NA","NA","NA","NA","NA","NA","NA","NA","4156325","3992150","3936161","3989386","NA","3918450","4156326","4163355","3918458","Left-Bias-Elimination","0","0","0","1920","-160","160","277","-277"
"undefined","undefined","undefined","undefined","#3d3846","legacy","True","legacy","legacy","undefined","undefined","0","0","23","23","NA","23","23","NA","23","NA","NA","23","NA","23","NA","NA","NA","NA","NA","NA","NA","NA","NA","NA","NA","NA","NA","23","0","0","0","0","0","23","23","0","16.16257655202278","Mon Jun 24 16:29:50 2024","The main experiment item","False","05 Milestone_FullExperiment_V7.osexp","C:\Users\yarbus\Desktop\Team_Dog\Milestone5_Final","C:\Users\yarbus\AppData\Local\Temp\tmpwlg83d_n.opensesame_pool\stimuli.csv","stimuli.csv","False","mono","False","18","no","white","no","yes","1080","23","legacy","23","23","C:/Users/yarbus/Desktop/Team_Dog/Milestone5_Final/Datenerhebung/Enno.csv","legacy","Melodramatic Milgram","4.0.13","NA","NA","0","space","NA","17703.0","NA","17703","space","2","legacy","1024","2","48000","-16","experiment","NA","009.png","017.png","0","even","4163863.0","NA","3918416","4170380","4165366","NA","4170374","4163863","NA","4165366","NA","NA","4165374","NA","4170486","NA","NA","NA","NA","NA","NA","NA","NA","NA","NA","NA","NA","NA","4163451","3992150","3936161","3989386","NA","3918450","4163455","4170481","3918458","Left-Bias-Elimination","0","0","0","1920","320","-320","0","0"
"undefined","undefined","undefined","undefined","#3d3846","legacy","True","legacy","legacy","undefined","undefined","0","0","24","24","NA","24","24","NA","24","NA","NA","24","NA","24","NA","NA","NA","NA","NA","NA","NA","NA","NA","NA","NA","NA","NA","24","0","0","0","0","0","24","24","0","25.52633594388357","Mon Jun 24 16:29:50 2024","The main experiment item","False","05 Milestone_FullExperiment_V7.osexp","C:\Users\yarbus\Desktop\Team_Dog\Milestone5_Final","C:\Users\yarbus\AppData\Local\Temp\tmpwlg83d_n.opensesame_pool\stimuli.csv","stimuli.csv","False","mono","False","18","no","white","no","yes","1080","23","legacy","24","24","C:/Users/yarbus/Desktop/Team_Dog/Milestone5_Final/Datenerhebung/Enno.csv","legacy","Melodramatic Milgram","4.0.13","NA","NA","0","space","NA","17703.0","NA","17703","space","2","legacy","1024","2","48000","-16","experiment","NA","005.png","016.png","0","even","4171005.0","NA","3918416","4177521","4172507","NA","4177515","4171005","NA","4172508","NA","NA","4172515","NA","4177626","NA","NA","NA","NA","NA","NA","NA","NA","NA","NA","NA","NA","NA","4170594","3992150","3936161","3989386","NA","3918450","4170596","4177621","3918458","Left-Bias-Elimination","0","0","0","1920","-320","320","0","0"
"undefined","undefined","undefined","undefined","#3d3846","legacy","True","legacy","legacy","undefined","undefined","0","0","25","25","NA","25","25","NA","25","NA","NA","25","NA","25","NA","NA","NA","NA","NA","NA","NA","NA","NA","NA","NA","NA","NA","25","0","0","0","0","0","25","25","0","28.28250937947334","Mon Jun 24 16:29:50 2024","The main experiment item","False","05 Milestone_FullExperiment_V7.osexp","C:\Users\yarbus\Desktop\Team_Dog\Milestone5_Final","C:\Users\yarbus\AppData\Local\Temp\tmpwlg83d_n.opensesame_pool\stimuli.csv","stimuli.csv","False","mono","False","18","no","white","no","yes","1080","23","legacy","25","25","C:/Users/yarbus/Desktop/Team_Dog/Milestone5_Final/Datenerhebung/Enno.csv","legacy","Melodramatic Milgram","4.0.13","NA","NA","0","space","NA","17703.0","NA","17703","space","2","legacy","1024","2","48000","-16","experiment","NA","000.png","008.png","0","even","4178129.0","NA","3918416","4184812","4179778","NA","4184803","4178129","NA","4179779","NA","NA","4179801","NA","4184916","NA","NA","NA","NA","NA","NA","NA","NA","NA","NA","NA","NA","NA","4177718","3992150","3936161","3989386","NA","3918450","4177719","4184912","3918458","Left-Bias-Elimination","0","0","0","1920","160","-160","-277","277"
"undefined","undefined","undefined","undefined","#3d3846","legacy","True","legacy","legacy","undefined","undefined","0","0","26","26","NA","26","26","NA","26","NA","NA","26","NA","26","NA","NA","NA","NA","NA","NA","NA","NA","NA","NA","NA","NA","NA","26","0","0","0","0","0","26","26","0","28.25451944309086","Mon Jun 24 16:29:50 2024","The main experiment item","False","05 Milestone_FullExperiment_V7.osexp","C:\Users\yarbus\Desktop\Team_Dog\Milestone5_Final","C:\Users\yarbus\AppData\Local\Temp\tmpwlg83d_n.opensesame_pool\stimuli.csv","stimuli.csv","False","mono","False","18","no","white","no","yes","1080","23","legacy","26","26","C:/Users/yarbus/Desktop/Team_Dog/Milestone5_Final/Datenerhebung/Enno.csv","legacy","Melodramatic Milgram","4.0.13","NA","NA","0","space","NA","17703.0","NA","17703","space","2","legacy","1024","2","48000","-16","experiment","NA","007.png","010.png","0","even","4185410.0","NA","3918416","4192080","4187060","NA","4192074","4185410","NA","4187060","NA","NA","4187073","NA","4192185","NA","NA","NA","NA","NA","NA","NA","NA","NA","NA","NA","NA","NA","4185000","3992150","3936161","3989386","NA","3918450","4185001","4192180","3918458","Left-Bias-Elimination","0","0","0","1920","-160","160","-277","277"
"undefined","undefined","undefined","undefined","#3d3846","legacy","True","legacy","legacy","undefined","undefined","0","0","27","27","NA","27","27","NA","27","NA","NA","27","NA","27","NA","NA","NA","NA","NA","NA","NA","NA","NA","NA","NA","NA","NA","27","0","0","0","0","0","27","27","0","22.64645217247062","Mon Jun 24 16:29:50 2024","The main experiment item","False","05 Milestone_FullExperiment_V7.osexp","C:\Users\yarbus\Desktop\Team_Dog\Milestone5_Final","C:\Users\yarbus\AppData\Local\Temp\tmpwlg83d_n.opensesame_pool\stimuli.csv","stimuli.csv","False","mono","False","18","no","white","no","yes","1080","23","legacy","27","27","C:/Users/yarbus/Desktop/Team_Dog/Milestone5_Final/Datenerhebung/Enno.csv","legacy","Melodramatic Milgram","4.0.13","NA","NA","0","space","NA","17703.0","NA","17703","space","2","legacy","1024","2","48000","-16","experiment","NA","001.png","001.png","0","even","4192670.0","NA","3918416","4199190","4194172","NA","4199180","4192670","NA","4194172","NA","NA","4194180","NA","4199294","NA","NA","NA","NA","NA","NA","NA","NA","NA","NA","NA","NA","NA","4192260","3992150","3936161","3989386","NA","3918450","4192262","4199290","3918458","Left-Bias-Elimination","0","0","0","1920","0","0","320","-320"
"undefined","undefined","undefined","undefined","#3d3846","legacy","True","legacy","legacy","undefined","undefined","0","0","28","28","NA","28","28","NA","28","NA","NA","28","NA","28","NA","NA","NA","NA","NA","NA","NA","NA","NA","NA","NA","NA","NA","28","0","0","0","0","0","28","28","0","11.362917097295039","Mon Jun 24 16:29:50 2024","The main experiment item","False","05 Milestone_FullExperiment_V7.osexp","C:\Users\yarbus\Desktop\Team_Dog\Milestone5_Final","C:\Users\yarbus\AppData\Local\Temp\tmpwlg83d_n.opensesame_pool\stimuli.csv","stimuli.csv","False","mono","False","18","no","white","no","yes","1080","23","legacy","28","28","C:/Users/yarbus/Desktop/Team_Dog/Milestone5_Final/Datenerhebung/Enno.csv","legacy","Melodramatic Milgram","4.0.13","NA","NA","0","space","NA","17703.0","NA","17703","space","2","legacy","1024","2","48000","-16","experiment","NA","021.png","003.png","0","even","4199796.0","NA","3918416","4206459","4201441","NA","4206449","4199796","NA","4201441","NA","NA","4201449","NA","4206563","NA","NA","NA","NA","NA","NA","NA","NA","NA","NA","NA","NA","NA","4199384","3992150","3936161","3989386","NA","3918450","4199387","4206559","3918458","Left-Bias-Elimination","0","0","0","1920","277","-277","-160","160"
"undefined","undefined","undefined","undefined","#3d3846","legacy","True","legacy","legacy","undefined","undefined","0","0","29","29","NA","29","29","NA","29","NA","NA","29","NA","29","NA","NA","NA","NA","NA","NA","NA","NA","NA","NA","NA","NA","NA","29","0","0","0","0","0","29","29","0","3.791283729820236","Mon Jun 24 16:29:50 2024","The main experiment item","False","05 Milestone_FullExperiment_V7.osexp","C:\Users\yarbus\Desktop\Team_Dog\Milestone5_Final","C:\Users\yarbus\AppData\Local\Temp\tmpwlg83d_n.opensesame_pool\stimuli.csv","stimuli.csv","False","mono","False","18","no","white","no","yes","1080","23","legacy","29","29","C:/Users/yarbus/Desktop/Team_Dog/Milestone5_Final/Datenerhebung/Enno.csv","legacy","Melodramatic Milgram","4.0.13","NA","NA","0","space","NA","17703.0","NA","17703","space","2","legacy","1024","2","48000","-16","experiment","NA","019.png","021.png","0","even","4207065.0","NA","3918416","4213601","4208586","NA","4213594","4207065","NA","4208586","NA","NA","4208594","NA","4213705","NA","NA","NA","NA","NA","NA","NA","NA","NA","NA","NA","NA","NA","4206654","3992150","3936161","3989386","NA","3918450","4206655","4213701","3918458","Left-Bias-Elimination","0","0","0","1920","-320","320","0","0"
"undefined","undefined","undefined","undefined","#3d3846","legacy","True","legacy","legacy","undefined","undefined","0","0","30","30","NA","30","30","NA","30","NA","NA","30","NA","30","NA","NA","NA","NA","NA","NA","NA","NA","NA","NA","NA","NA","NA","30","0","0","0","0","0","30","30","0","29.426006946237177","Mon Jun 24 16:29:50 2024","The main experiment item","False","05 Milestone_FullExperiment_V7.osexp","C:\Users\yarbus\Desktop\Team_Dog\Milestone5_Final","C:\Users\yarbus\AppData\Local\Temp\tmpwlg83d_n.opensesame_pool\stimuli.csv","stimuli.csv","False","mono","False","18","no","white","no","yes","1080","23","legacy","30","30","C:/Users/yarbus/Desktop/Team_Dog/Milestone5_Final/Datenerhebung/Enno.csv","legacy","Melodramatic Milgram","4.0.13","NA","NA","0","space","NA","17703.0","NA","17703","space","2","legacy","1024","2","48000","-16","experiment","NA","014.png","013.png","0","even","4214202.0","NA","3918416","4220761","4215747","NA","4220755","4214202","NA","4215747","NA","NA","4215755","NA","4220866","NA","NA","NA","NA","NA","NA","NA","NA","NA","NA","NA","NA","NA","4213790","3992150","3936161","3989386","NA","3918450","4213791","4220862","3918458","Left-Bias-Elimination","0","0","0","1920","-277","277","-160","160"
"undefined","undefined","undefined","undefined","#3d3846","legacy","True","legacy","legacy","undefined","undefined","0","0","31","31","NA","31","31","NA","31","NA","NA","31","NA","31","NA","NA","NA","NA","NA","NA","NA","NA","NA","NA","NA","NA","NA","31","0","0","0","0","0","31","31","0","27.956217117485686","Mon Jun 24 16:29:50 2024","The main experiment item","False","05 Milestone_FullExperiment_V7.osexp","C:\Users\yarbus\Desktop\Team_Dog\Milestone5_Final","C:\Users\yarbus\AppData\Local\Temp\tmpwlg83d_n.opensesame_pool\stimuli.csv","stimuli.csv","False","mono","False","18","no","white","no","yes","1080","23","legacy","31","31","C:/Users/yarbus/Desktop/Team_Dog/Milestone5_Final/Datenerhebung/Enno.csv","legacy","Melodramatic Milgram","4.0.13","NA","NA","0","space","NA","17703.0","NA","17703","space","2","legacy","1024","2","48000","-16","experiment","NA","003.png","015.png","0","even","4221372.0","NA","3918416","4227988","4222972","NA","4227980","4221372","NA","4222972","NA","NA","4222980","NA","4228092","NA","NA","NA","NA","NA","NA","NA","NA","NA","NA","NA","NA","NA","4220961","3992150","3936161","3989386","NA","3918450","4220962","4228088","3918458","Left-Bias-Elimination","0","0","0","1920","-277","277","-160","160"
"undefined","undefined","undefined","undefined","#3d3846","legacy","True","legacy","legacy","undefined","undefined","0","0","32","32","NA","32","32","NA","32","NA","NA","32","NA","32","NA","NA","NA","NA","NA","NA","NA","NA","NA","NA","NA","NA","NA","32","0","0","0","0","0","32","32","0","28.940969493090513","Mon Jun 24 16:29:50 2024","The main experiment item","False","05 Milestone_FullExperiment_V7.osexp","C:\Users\yarbus\Desktop\Team_Dog\Milestone5_Final","C:\Users\yarbus\AppData\Local\Temp\tmpwlg83d_n.opensesame_pool\stimuli.csv","stimuli.csv","False","mono","False","18","no","white","no","yes","1080","23","legacy","32","32","C:/Users/yarbus/Desktop/Team_Dog/Milestone5_Final/Datenerhebung/Enno.csv","legacy","Melodramatic Milgram","4.0.13","NA","NA","0","space","NA","17703.0","NA","17703","space","2","legacy","1024","2","48000","-16","experiment","NA","020.png","004.png","0","even","4228593.0","NA","3918416","4235371","4230351","NA","4235360","4228593","NA","4230351","NA","NA","4230360","NA","4235475","NA","NA","NA","NA","NA","NA","NA","NA","NA","NA","NA","NA","NA","4228183","3992150","3936161","3989386","NA","3918450","4228184","4235471","3918458","Left-Bias-Elimination","0","0","0","1920","160","-160","-277","277"
"undefined","undefined","undefined","undefined","#3d3846","legacy","True","legacy","legacy","undefined","undefined","0","0","33","33","NA","33","33","NA","33","NA","NA","33","NA","33","NA","NA","NA","NA","NA","NA","NA","NA","NA","NA","NA","NA","NA","33","0","0","0","0","0","33","33","0","17.978292871126555","Mon Jun 24 16:29:50 2024","The main experiment item","False","05 Milestone_FullExperiment_V7.osexp","C:\Users\yarbus\Desktop\Team_Dog\Milestone5_Final","C:\Users\yarbus\AppData\Local\Temp\tmpwlg83d_n.opensesame_pool\stimuli.csv","stimuli.csv","False","mono","False","18","no","white","no","yes","1080","23","legacy","33","33","C:/Users/yarbus/Desktop/Team_Dog/Milestone5_Final/Datenerhebung/Enno.csv","legacy","Melodramatic Milgram","4.0.13","NA","NA","0","space","NA","17703.0","NA","17703","space","2","legacy","1024","2","48000","-16","experiment","NA","011.png","020.png","0","even","4235974.0","NA","3918416","4242530","4237516","NA","4242523","4235974","NA","4237516","NA","NA","4237523","NA","4242634","NA","NA","NA","NA","NA","NA","NA","NA","NA","NA","NA","NA","NA","4235564","3992150","3936161","3989386","NA","3918450","4235566","4242630","3918458","Left-Bias-Elimination","0","0","0","1920","-160","160","-277","277"
"undefined","undefined","undefined","undefined","#3d3846","legacy","True","legacy","legacy","undefined","undefined","0","0","34","34","NA","34","34","NA","34","NA","NA","34","NA","34","NA","NA","NA","NA","NA","NA","NA","NA","NA","NA","NA","NA","NA","34","0","0","0","0","0","34","34","0","26.90228718901049","Mon Jun 24 16:29:50 2024","The main experiment item","False","05 Milestone_FullExperiment_V7.osexp","C:\Users\yarbus\Desktop\Team_Dog\Milestone5_Final","C:\Users\yarbus\AppData\Local\Temp\tmpwlg83d_n.opensesame_pool\stimuli.csv","stimuli.csv","False","mono","False","18","no","white","no","yes","1080","23","legacy","34","34","C:/Users/yarbus/Desktop/Team_Dog/Milestone5_Final/Datenerhebung/Enno.csv","legacy","Melodramatic Milgram","4.0.13","NA","NA","0","space","NA","17703.0","NA","17703","space","2","legacy","1024","2","48000","-16","experiment","NA","006.png","006.png","0","even","4243125.0","NA","3918416","4249641","4244628","NA","4249635","4243125","NA","4244628","NA","NA","4244635","NA","4249746","NA","NA","NA","NA","NA","NA","NA","NA","NA","NA","NA","NA","NA","4242714","3992150","3936161","3989386","NA","3918450","4242715","4249741","3918458","Left-Bias-Elimination","0","0","0","1920","277","-277","-160","160"
"undefined","undefined","undefined","undefined","#3d3846","legacy","True","legacy","legacy","undefined","undefined","0","0","35","35","NA","35","35","NA","35","NA","NA","35","NA","35","NA","NA","NA","NA","NA","NA","NA","NA","NA","NA","NA","NA","NA","35","0","0","0","0","0","35","35","0","26.46721439063808","Mon Jun 24 16:29:50 2024","The main experiment item","False","05 Milestone_FullExperiment_V7.osexp","C:\Users\yarbus\Desktop\Team_Dog\Milestone5_Final","C:\Users\yarbus\AppData\Local\Temp\tmpwlg83d_n.opensesame_pool\stimuli.csv","stimuli.csv","False","mono","False","18","no","white","no","yes","1080","23","legacy","35","35","C:/Users/yarbus/Desktop/Team_Dog/Milestone5_Final/Datenerhebung/Enno.csv","legacy","Melodramatic Milgram","4.0.13","NA","NA","0","space","NA","17703.0","NA","17703","space","2","legacy","1024","2","48000","-16","experiment","NA","004.png","005.png","0","even","4250231.0","NA","3918416","4256910","4251894","NA","4256904","4250231","NA","4251894","NA","NA","4251904","NA","4257014","NA","NA","NA","NA","NA","NA","NA","NA","NA","NA","NA","NA","NA","4249821","3992150","3936161","3989386","NA","3918450","4249823","4257010","3918458","Left-Bias-Elimination","0","0","0","1920","0","0","320","-320"
"undefined","undefined","undefined","undefined","#3d3846","legacy","True","legacy","legacy","undefined","undefined","0","0","36","36","NA","36","36","NA","36","NA","NA","36","NA","36","NA","NA","NA","NA","NA","NA","NA","NA","NA","NA","NA","NA","NA","36","0","0","0","0","0","36","36","0","11.301721107866717","Mon Jun 24 16:29:50 2024","The main experiment item","False","05 Milestone_FullExperiment_V7.osexp","C:\Users\yarbus\Desktop\Team_Dog\Milestone5_Final","C:\Users\yarbus\AppData\Local\Temp\tmpwlg83d_n.opensesame_pool\stimuli.csv","stimuli.csv","False","mono","False","18","no","white","no","yes","1080","23","legacy","36","36","C:/Users/yarbus/Desktop/Team_Dog/Milestone5_Final/Datenerhebung/Enno.csv","legacy","Melodramatic Milgram","4.0.13","NA","NA","0","space","NA","17703.0","NA","17703","space","2","legacy","1024","2","48000","-16","experiment","NA","002.png","018.png","0","even","4257506.0","NA","3918416","4264048","4259027","NA","4264040","4257506","NA","4259027","NA","NA","4259040","NA","4264152","NA","NA","NA","NA","NA","NA","NA","NA","NA","NA","NA","NA","NA","4257095","3992150","3936161","3989386","NA","3918450","4257098","4264148","3918458","Left-Bias-Elimination","0","0","0","1920","0","0","-320","320"
"undefined","undefined","undefined","undefined","#3d3846","legacy","True","legacy","legacy","undefined","undefined","0","0","37","37","NA","37","37","NA","37","NA","NA","37","NA","37","NA","NA","NA","NA","NA","NA","NA","NA","NA","NA","NA","NA","NA","37","0","0","0","0","0","37","37","0","25.88897087178249","Mon Jun 24 16:29:50 2024","The main experiment item","False","05 Milestone_FullExperiment_V7.osexp","C:\Users\yarbus\Desktop\Team_Dog\Milestone5_Final","C:\Users\yarbus\AppData\Local\Temp\tmpwlg83d_n.opensesame_pool\stimuli.csv","stimuli.csv","False","mono","False","18","no","white","no","yes","1080","23","legacy","37","37","C:/Users/yarbus/Desktop/Team_Dog/Milestone5_Final/Datenerhebung/Enno.csv","legacy","Melodramatic Milgram","4.0.13","NA","NA","0","space","NA","17703.0","NA","17703","space","2","legacy","1024","2","48000","-16","experiment","NA","015.png","014.png","0","even","4264659.0","NA","3918416","4271292","4266270","NA","4271281","4264659","NA","4266270","NA","NA","4266280","NA","4271396","NA","NA","NA","NA","NA","NA","NA","NA","NA","NA","NA","NA","NA","4264249","3992150","3936161","3989386","NA","3918450","4264251","4271392","3918458","Left-Bias-Elimination","0","0","0","1920","-277","277","160","-160"
"undefined","undefined","undefined","undefined","#3d3846","legacy","True","legacy","legacy","undefined","undefined","0","0","38","38","NA","38","38","NA","38","NA","NA","38","NA","38","NA","NA","NA","NA","NA","NA","NA","NA","NA","NA","NA","NA","NA","38","0","0","0","0","0","38","38","0","27.381696265936498","Mon Jun 24 16:29:50 2024","The main experiment item","False","05 Milestone_FullExperiment_V7.osexp","C:\Users\yarbus\Desktop\Team_Dog\Milestone5_Final","C:\Users\yarbus\AppData\Local\Temp\tmpwlg83d_n.opensesame_pool\stimuli.csv","stimuli.csv","False","mono","False","18","no","white","no","yes","1080","23","legacy","38","38","C:/Users/yarbus/Desktop/Team_Dog/Milestone5_Final/Datenerhebung/Enno.csv","legacy","Melodramatic Milgram","4.0.13","NA","NA","0","space","NA","17703.0","NA","17703","space","2","legacy","1024","2","48000","-16","experiment","NA","008.png","007.png","0","even","4271907.0","NA","3918416","4278428","4273411","NA","4278420","4271907","NA","4273411","NA","NA","4273420","NA","4278532","NA","NA","NA","NA","NA","NA","NA","NA","NA","NA","NA","NA","NA","4271497","3992150","3936161","3989386","NA","3918450","4271498","4278528","3918458","Left-Bias-Elimination","0","0","0","1920","160","-160","277","-277"
"undefined","undefined","undefined","undefined","#3d3846","legacy","True","legacy","legacy","undefined","undefined","0","0","39","39","NA","39","39","NA","39","NA","NA","39","NA","39","NA","NA","NA","NA","NA","NA","NA","NA","NA","NA","NA","NA","NA","39","0","0","0","0","0","39","39","0","23.32627181870258","Mon Jun 24 16:29:50 2024","The main experiment item","False","05 Milestone_FullExperiment_V7.osexp","C:\Users\yarbus\Desktop\Team_Dog\Milestone5_Final","C:\Users\yarbus\AppData\Local\Temp\tmpwlg83d_n.opensesame_pool\stimuli.csv","stimuli.csv","False","mono","False","18","no","white","no","yes","1080","23","legacy","39","39","C:/Users/yarbus/Desktop/Team_Dog/Milestone5_Final/Datenerhebung/Enno.csv","legacy","Melodramatic Milgram","4.0.13","NA","NA","0","space","NA","17703.0","NA","17703","space","2","legacy","1024","2","48000","-16","experiment","NA","017.png","019.png","0","even","4279021.0","NA","3918416","4285576","4280560","NA","4285569","4279021","NA","4280560","NA","NA","4280569","NA","4285681","NA","NA","NA","NA","NA","NA","NA","NA","NA","NA","NA","NA","NA","4278610","3992150","3936161","3989386","NA","3918450","4278611","4285676","3918458","Left-Bias-Elimination","0","0","0","1920","-160","160","277","-277"
"undefined","undefined","undefined","undefined","#3d3846","legacy","True","legacy","legacy","undefined","undefined","0","0","40","40","NA","40","40","NA","40","NA","NA","40","NA","40","NA","NA","NA","NA","NA","NA","NA","NA","NA","NA","NA","NA","NA","40","0","0","0","0","0","40","40","0","3.699177854604992","Mon Jun 24 16:29:50 2024","The main experiment item","False","05 Milestone_FullExperiment_V7.osexp","C:\Users\yarbus\Desktop\Team_Dog\Milestone5_Final","C:\Users\yarbus\AppData\Local\Temp\tmpwlg83d_n.opensesame_pool\stimuli.csv","stimuli.csv","False","mono","False","18","no","white","no","yes","1080","23","legacy","40","40","C:/Users/yarbus/Desktop/Team_Dog/Milestone5_Final/Datenerhebung/Enno.csv","legacy","Melodramatic Milgram","4.0.13","NA","NA","0","space","NA","17703.0","NA","17703","space","2","legacy","1024","2","48000","-16","experiment","NA","010.png","011.png","0","even","4286176.0","NA","3918416","4292725","4287698","NA","4292718","4286176","NA","4287699","NA","NA","4287718","NA","4292829","NA","NA","NA","NA","NA","NA","NA","NA","NA","NA","NA","NA","NA","4285764","3992150","3936161","3989386","NA","3918450","4285767","4292825","3918458","Left-Bias-Elimination","0","0","0","1920","277","-277","160","-160"
"undefined","undefined","undefined","undefined","#3d3846","legacy","True","legacy","legacy","undefined","undefined","0","0","41","41","NA","41","41","NA","41","NA","NA","41","NA","41","NA","NA","NA","NA","NA","NA","NA","NA","NA","NA","NA","NA","NA","41","0","0","0","0","0","41","41","0","26.037522932875113","Mon Jun 24 16:29:50 2024","The main experiment item","False","05 Milestone_FullExperiment_V7.osexp","C:\Users\yarbus\Desktop\Team_Dog\Milestone5_Final","C:\Users\yarbus\AppData\Local\Temp\tmpwlg83d_n.opensesame_pool\stimuli.csv","stimuli.csv","False","mono","False","18","no","white","no","yes","1080","23","legacy","41","41","C:/Users/yarbus/Desktop/Team_Dog/Milestone5_Final/Datenerhebung/Enno.csv","legacy","Melodramatic Milgram","4.0.13","NA","NA","0","space","NA","17703.0","NA","17703","space","2","legacy","1024","2","48000","-16","experiment","NA","016.png","009.png","0","even","4293337.0","NA","3918416","4299855","4294840","NA","4299849","4293337","NA","4294840","NA","NA","4294848","NA","4299959","NA","NA","NA","NA","NA","NA","NA","NA","NA","NA","NA","NA","NA","4292924","3992150","3936161","3989386","NA","3918450","4292928","4299955","3918458","Left-Bias-Elimination","0","0","0","1920","277","-277","160","-160"
"undefined","undefined","undefined","undefined","#3d3846","legacy","True","legacy","legacy","undefined","undefined","0","0","42","42","NA","42","42","NA","42","NA","NA","42","NA","42","NA","NA","NA","NA","NA","NA","NA","NA","NA","NA","NA","NA","NA","42","0","0","0","0","0","42","42","0","14.823183058978948","Mon Jun 24 16:29:50 2024","The main experiment item","False","05 Milestone_FullExperiment_V7.osexp","C:\Users\yarbus\Desktop\Team_Dog\Milestone5_Final","C:\Users\yarbus\AppData\Local\Temp\tmpwlg83d_n.opensesame_pool\stimuli.csv","stimuli.csv","False","mono","False","18","no","white","no","yes","1080","23","legacy","42","42","C:/Users/yarbus/Desktop/Team_Dog/Milestone5_Final/Datenerhebung/Enno.csv","legacy","Melodramatic Milgram","4.0.13","NA","NA","0","space","NA","17703.0","NA","17703","space","2","legacy","1024","2","48000","-16","experiment","NA","013.png","000.png","0","even","4300473.0","NA","3918416","4307048","4302030","NA","4307039","4300473","NA","4302030","NA","NA","4302039","NA","4307152","NA","NA","NA","NA","NA","NA","NA","NA","NA","NA","NA","NA","NA","4300061","3992150","3936161","3989386","NA","3918450","4300064","4307148","3918458","Left-Bias-Elimination","0","0","0","1920","320","-320","0","0"
"undefined","undefined","undefined","undefined","#3d3846","legacy","True","legacy","legacy","undefined","undefined","0","0","43","43","NA","43","43","NA","43","NA","NA","43","NA","43","NA","NA","NA","NA","NA","NA","NA","NA","NA","NA","NA","NA","NA","43","0","0","0","0","0","43","43","0","29.852618297228133","Mon Jun 24 16:29:50 2024","The main experiment item","False","05 Milestone_FullExperiment_V7.osexp","C:\Users\yarbus\Desktop\Team_Dog\Milestone5_Final","C:\Users\yarbus\AppData\Local\Temp\tmpwlg83d_n.opensesame_pool\stimuli.csv","stimuli.csv","False","mono","False","18","no","white","no","yes","1080","23","legacy","43","43","C:/Users/yarbus/Desktop/Team_Dog/Milestone5_Final/Datenerhebung/Enno.csv","legacy","Melodramatic Milgram","4.0.13","NA","NA","0","space","NA","17703.0","NA","17703","space","2","legacy","1024","2","48000","-16","experiment","NA","018.png","012.png","0","even","4307643.0","NA","3918416","4314163","4309149","NA","4314157","4307643","NA","4309149","NA","NA","4309157","NA","4314267","NA","NA","NA","NA","NA","NA","NA","NA","NA","NA","NA","NA","NA","4307232","3992150","3936161","3989386","NA","3918450","4307234","4314263","3918458","Left-Bias-Elimination","0","0","0","1920","-277","277","160","-160"
"undefined","undefined","undefined","undefined","#3d3846","legacy","True","legacy","legacy","undefined","undefined","0","0","44","44","NA","44","44","NA","44","NA","NA","44","NA","44","NA","NA","NA","NA","NA","NA","NA","NA","NA","NA","NA","NA","NA","44","0","0","0","0","0","44","44","0","11.118425852610624","Mon Jun 24 16:29:50 2024","The main experiment item","False","05 Milestone_FullExperiment_V7.osexp","C:\Users\yarbus\Desktop\Team_Dog\Milestone5_Final","C:\Users\yarbus\AppData\Local\Temp\tmpwlg83d_n.opensesame_pool\stimuli.csv","stimuli.csv","False","mono","False","18","no","white","no","yes","1080","23","legacy","44","44","C:/Users/yarbus/Desktop/Team_Dog/Milestone5_Final/Datenerhebung/Enno.csv","legacy","Melodramatic Milgram","4.0.13","NA","NA","0","space","NA","17703.0","NA","17703","space","2","legacy","1024","2","48000","-16","experiment","NA","009.png","017.png","0","even","4314750.0","NA","3918416","4321294","4316279","NA","4321288","4314750","NA","4316279","NA","NA","4316288","NA","4321398","NA","NA","NA","NA","NA","NA","NA","NA","NA","NA","NA","NA","NA","4314340","3992150","3936161","3989386","NA","3918450","4314341","4321394","3918458","Left-Bias-Elimination","0","0","0","1920","0","0","-320","320"
"undefined","undefined","undefined","undefined","#3d3846","legacy","True","legacy","legacy","undefined","undefined","0","0","45","45","NA","45","45","NA","45","NA","NA","45","NA","45","NA","NA","NA","NA","NA","NA","NA","NA","NA","NA","NA","NA","NA","45","0","0","0","0","0","45","45","0","26.599977287208404","Mon Jun 24 16:29:50 2024","The main experiment item","False","05 Milestone_FullExperiment_V7.osexp","C:\Users\yarbus\Desktop\Team_Dog\Milestone5_Final","C:\Users\yarbus\AppData\Local\Temp\tmpwlg83d_n.opensesame_pool\stimuli.csv","stimuli.csv","False","mono","False","18","no","white","no","yes","1080","23","legacy","45","45","C:/Users/yarbus/Desktop/Team_Dog/Milestone5_Final/Datenerhebung/Enno.csv","legacy","Melodramatic Milgram","4.0.13","NA","NA","0","space","NA","17703.0","NA","17703","space","2","legacy","1024","2","48000","-16","experiment","NA","012.png","002.png","0","even","4321893.0","NA","3918416","4328438","4323421","NA","4328430","4321893","NA","4323421","NA","NA","4323430","NA","4328543","NA","NA","NA","NA","NA","NA","NA","NA","NA","NA","NA","NA","NA","4321482","3992150","3936161","3989386","NA","3918450","4321485","4328538","3918458","Left-Bias-Elimination","0","0","0","1920","160","-160","277","-277"
"undefined","undefined","undefined","undefined","#3d3846","legacy","True","legacy","legacy","undefined","undefined","0","0","46","46","NA","46","46","NA","46","NA","NA","46","NA","46","NA","NA","NA","NA","NA","NA","NA","NA","NA","NA","NA","NA","NA","46","0","0","0","0","0","46","46","0","25.276399873399793","Mon Jun 24 16:29:50 2024","The main experiment item","False","05 Milestone_FullExperiment_V7.osexp","C:\Users\yarbus\Desktop\Team_Dog\Milestone5_Final","C:\Users\yarbus\AppData\Local\Temp\tmpwlg83d_n.opensesame_pool\stimuli.csv","stimuli.csv","False","mono","False","18","no","white","no","yes","1080","23","legacy","46","46","C:/Users/yarbus/Desktop/Team_Dog/Milestone5_Final/Datenerhebung/Enno.csv","legacy","Melodramatic Milgram","4.0.13","NA","NA","0","space","NA","17703.0","NA","17703","space","2","legacy","1024","2","48000","-16","experiment","NA","012.png","002.png","0","even","4329049.0","NA","3918416","4335592","4330578","NA","4335585","4329049","NA","4330578","NA","NA","4330585","NA","4335696","NA","NA","NA","NA","NA","NA","NA","NA","NA","NA","NA","NA","NA","4328639","3992150","3936161","3989386","NA","3918450","4328640","4335692","3918458","Left-Bias-Elimination","0","0","0","1920","-160","160","277","-277"
"undefined","undefined","undefined","undefined","#3d3846","legacy","True","legacy","legacy","undefined","undefined","0","0","47","47","NA","47","47","NA","47","NA","NA","47","NA","47","NA","NA","NA","NA","NA","NA","NA","NA","NA","NA","NA","NA","NA","47","0","0","0","0","0","47","47","0","9.377780112585457","Mon Jun 24 16:29:50 2024","The main experiment item","False","05 Milestone_FullExperiment_V7.osexp","C:\Users\yarbus\Desktop\Team_Dog\Milestone5_Final","C:\Users\yarbus\AppData\Local\Temp\tmpwlg83d_n.opensesame_pool\stimuli.csv","stimuli.csv","False","mono","False","18","no","white","no","yes","1080","23","legacy","47","47","C:/Users/yarbus/Desktop/Team_Dog/Milestone5_Final/Datenerhebung/Enno.csv","legacy","Melodramatic Milgram","4.0.13","NA","NA","0","space","NA","17703.0","NA","17703","space","2","legacy","1024","2","48000","-16","experiment","NA","009.png","017.png","0","even","4336185.0","NA","3918416","4342714","4337688","NA","4342698","4336185","NA","4337688","NA","NA","4337697","NA","4342818","NA","NA","NA","NA","NA","NA","NA","NA","NA","NA","NA","NA","NA","4335775","3992150","3936161","3989386","NA","3918450","4335777","4342814","3918458","Left-Bias-Elimination","0","0","0","1920","320","-320","0","0"
