"acc","accuracy","average_response_time","avg_rt","background","canvas_backend","central_fixation","clock_backend","color_backend","correct","correct_welcome","count_end_sketchpad","count_experiment","count_fix_sketchpad","count_fixation","count_fixation_inline_script","count_fixation_pygaze_log","count_fixation_script","count_fixation_sketchpad","count_fixationstimulus_pygaze_log","count_getting_started","count_image_loop","count_image_stimulus","count_initial_fixation","count_logger","count_new_1_inline_script","count_new_1_loop","count_new_1_pygaze_log","count_new_1_sketchpad","count_new_2_inline_script","count_new_2_loop","count_new_2_pygaze_log","count_new_3_inline_script","count_new_3_loop","count_new_4_inline_script","count_new_4_loop","count_new_inline_script","count_new_loop","count_new_sequence","count_position_loop","count_pygaze_init","count_pygaze_start_recording","count_pygaze_stop_recording","count_shuffle_to_csv","count_start_pygaze_log","count_stop_pygaze_log","count_welcome","d","datetime","description","disable_garbage_collection","experiment_file","experiment_path","file_path","filename","font_bold","font_family","font_italic","font_size","font_underline","foreground","form_clicks","fullscreen","height","i","keyboard_backend","live_row","live_row_position_loop","logfile","mouse_backend","opensesame_codename","opensesame_version","picture1","picture2","repeat_cycle","response","response_end_sketchpad","response_time","response_time_end_sketchpad","response_time_welcome","response_welcome","round_decimals","sampler_backend","sound_buf_size","sound_channels","sound_freq","sound_sample_size","start","stimulus","stimulus1","stimulus2","subject_nr","subject_parity","t0","time_end_sketchpad","time_experiment","time_fix_sketchpad","time_fixation","time_fixation_inline_script","time_fixation_pygaze_log","time_fixation_script","time_fixation_sketchpad","time_fixationstimulus_pygaze_log","time_getting_started","time_image_loop","time_image_stimulus","time_initial_fixation","time_logger","time_new_1_inline_script","time_new_1_loop","time_new_1_pygaze_log","time_new_1_sketchpad","time_new_2_inline_script","time_new_2_loop","time_new_2_pygaze_log","time_new_3_inline_script","time_new_3_loop","time_new_4_inline_script","time_new_4_loop","time_new_inline_script","time_new_loop","time_new_sequence","time_position_loop","time_pygaze_init","time_pygaze_start_recording","time_pygaze_stop_recording","time_shuffle_to_csv","time_start_pygaze_log","time_stop_pygaze_log","time_welcome","title","total_correct","total_response_time","total_responses","width","x1_cor","x2_cor","y1_cor","y2_cor"
"undefined","undefined","undefined","undefined","#3d3846","legacy","True","legacy","legacy","undefined","undefined","0","0","0","0","NA","0","0","NA","0","NA","NA","0","NA","0","NA","NA","NA","NA","NA","NA","NA","NA","NA","NA","NA","NA","NA","0","0","0","0","0","0","0","0","0","20.12389856861726","Mon Jun 24 16:07:45 2024","The main experiment item","False","05 Milestone_FullExperiment_V7.osexp","C:\Users\yarbus\Desktop\Team_Dog\Milestone5_Final","C:\Users\yarbus\AppData\Local\Temp\tmpwlg83d_n.opensesame_pool\stimuli.csv","stimuli.csv","False","mono","False","18","no","white","no","yes","1080","23","legacy","0","0","C:/Users/yarbus/Desktop/Team_Dog/Milestone5_Final/Datenerhebung/Patrick.csv","legacy","Melodramatic Milgram","4.0.13","NA","NA","0","space","NA","3790.0","NA","3790","space","2","legacy","1024","2","48000","-16","experiment","NA","011.png","004.png","0","even","2655974.0","NA","2593571","2660542","2657476","NA","2660514","2655974","NA","2657476","NA","NA","2657514","NA","2660677","NA","NA","NA","NA","NA","NA","NA","NA","NA","NA","NA","NA","NA","2655425","2655354","2597369","2654586","NA","2593573","2655426","2660643","2593578","Left-Bias-Elimination","0","0","0","1920","-320","320","0","0"
"undefined","undefined","undefined","undefined","#3d3846","legacy","True","legacy","legacy","undefined","undefined","0","0","1","1","NA","1","1","NA","1","NA","NA","1","NA","1","NA","NA","NA","NA","NA","NA","NA","NA","NA","NA","NA","NA","NA","1","0","0","0","0","0","1","1","0","21.626394673176563","Mon Jun 24 16:07:45 2024","The main experiment item","False","05 Milestone_FullExperiment_V7.osexp","C:\Users\yarbus\Desktop\Team_Dog\Milestone5_Final","C:\Users\yarbus\AppData\Local\Temp\tmpwlg83d_n.opensesame_pool\stimuli.csv","stimuli.csv","False","mono","False","18","no","white","no","yes","1080","23","legacy","1","1","C:/Users/yarbus/Desktop/Team_Dog/Milestone5_Final/Datenerhebung/Patrick.csv","legacy","Melodramatic Milgram","4.0.13","NA","NA","0","space","NA","3790.0","NA","3790","space","2","legacy","1024","2","48000","-16","experiment","NA","015.png","013.png","0","even","2661243.0","NA","2593571","2665919","2662901","NA","2665912","2661243","NA","2662901","NA","NA","2662912","NA","2666023","NA","NA","NA","NA","NA","NA","NA","NA","NA","NA","NA","NA","NA","2660754","2655354","2597369","2654586","NA","2593573","2660769","2666019","2593578","Left-Bias-Elimination","0","0","0","1920","-277","277","-160","160"
"undefined","undefined","undefined","undefined","#3d3846","legacy","True","legacy","legacy","undefined","undefined","0","0","2","2","NA","2","2","NA","2","NA","NA","2","NA","2","NA","NA","NA","NA","NA","NA","NA","NA","NA","NA","NA","NA","NA","2","0","0","0","0","0","2","2","0","16.522287667269296","Mon Jun 24 16:07:45 2024","The main experiment item","False","05 Milestone_FullExperiment_V7.osexp","C:\Users\yarbus\Desktop\Team_Dog\Milestone5_Final","C:\Users\yarbus\AppData\Local\Temp\tmpwlg83d_n.opensesame_pool\stimuli.csv","stimuli.csv","False","mono","False","18","no","white","no","yes","1080","23","legacy","2","2","C:/Users/yarbus/Desktop/Team_Dog/Milestone5_Final/Datenerhebung/Patrick.csv","legacy","Melodramatic Milgram","4.0.13","NA","NA","0","space","NA","3790.0","NA","3790","space","2","legacy","1024","2","48000","-16","experiment","NA","020.png","007.png","0","even","2666602.0","NA","2593571","2671126","2668104","NA","2671114","2666602","NA","2668104","NA","NA","2668114","NA","2671230","NA","NA","NA","NA","NA","NA","NA","NA","NA","NA","NA","NA","NA","2666129","2655354","2597369","2654586","NA","2593573","2666130","2671226","2593578","Left-Bias-Elimination","0","0","0","1920","160","-160","-277","277"
"undefined","undefined","undefined","undefined","#3d3846","legacy","True","legacy","legacy","undefined","undefined","0","0","3","3","NA","3","3","NA","3","NA","NA","3","NA","3","NA","NA","NA","NA","NA","NA","NA","NA","NA","NA","NA","NA","NA","3","0","0","0","0","0","3","3","0","29.552543841774437","Mon Jun 24 16:07:45 2024","The main experiment item","False","05 Milestone_FullExperiment_V7.osexp","C:\Users\yarbus\Desktop\Team_Dog\Milestone5_Final","C:\Users\yarbus\AppData\Local\Temp\tmpwlg83d_n.opensesame_pool\stimuli.csv","stimuli.csv","False","mono","False","18","no","white","no","yes","1080","23","legacy","3","3","C:/Users/yarbus/Desktop/Team_Dog/Milestone5_Final/Datenerhebung/Patrick.csv","legacy","Melodramatic Milgram","4.0.13","NA","NA","0","space","NA","3790.0","NA","3790","space","2","legacy","1024","2","48000","-16","experiment","NA","021.png","003.png","0","even","2671772.0","NA","2593571","2676430","2673414","NA","2676424","2671772","NA","2673414","NA","NA","2673424","NA","2676534","NA","NA","NA","NA","NA","NA","NA","NA","NA","NA","NA","NA","NA","2671336","2655354","2597369","2654586","NA","2593573","2671338","2676530","2593578","Left-Bias-Elimination","0","0","0","1920","-320","320","0","0"
"undefined","undefined","undefined","undefined","#3d3846","legacy","True","legacy","legacy","undefined","undefined","0","0","4","4","NA","4","4","NA","4","NA","NA","4","NA","4","NA","NA","NA","NA","NA","NA","NA","NA","NA","NA","NA","NA","NA","4","0","0","0","0","0","4","4","0","23.857269533624372","Mon Jun 24 16:07:45 2024","The main experiment item","False","05 Milestone_FullExperiment_V7.osexp","C:\Users\yarbus\Desktop\Team_Dog\Milestone5_Final","C:\Users\yarbus\AppData\Local\Temp\tmpwlg83d_n.opensesame_pool\stimuli.csv","stimuli.csv","False","mono","False","18","no","white","no","yes","1080","23","legacy","4","4","C:/Users/yarbus/Desktop/Team_Dog/Milestone5_Final/Datenerhebung/Patrick.csv","legacy","Melodramatic Milgram","4.0.13","NA","NA","0","space","NA","3790.0","NA","3790","space","2","legacy","1024","2","48000","-16","experiment","NA","010.png","002.png","0","even","2677114.0","NA","2593571","2681642","2678627","NA","2681636","2677114","NA","2678627","NA","NA","2678636","NA","2681746","NA","NA","NA","NA","NA","NA","NA","NA","NA","NA","NA","NA","NA","2676635","2655354","2597369","2654586","NA","2593573","2676636","2681742","2593578","Left-Bias-Elimination","0","0","0","1920","277","-277","-160","160"
"undefined","undefined","undefined","undefined","#3d3846","legacy","True","legacy","legacy","undefined","undefined","0","0","5","5","NA","5","5","NA","5","NA","NA","5","NA","5","NA","NA","NA","NA","NA","NA","NA","NA","NA","NA","NA","NA","NA","5","0","0","0","0","0","5","5","0","18.793274784347773","Mon Jun 24 16:07:45 2024","The main experiment item","False","05 Milestone_FullExperiment_V7.osexp","C:\Users\yarbus\Desktop\Team_Dog\Milestone5_Final","C:\Users\yarbus\AppData\Local\Temp\tmpwlg83d_n.opensesame_pool\stimuli.csv","stimuli.csv","False","mono","False","18","no","white","no","yes","1080","23","legacy","5","5","C:/Users/yarbus/Desktop/Team_Dog/Milestone5_Final/Datenerhebung/Patrick.csv","legacy","Melodramatic Milgram","4.0.13","NA","NA","0","space","NA","3790.0","NA","3790","space","2","legacy","1024","2","48000","-16","experiment","NA","017.png","001.png","0","even","2682260.0","NA","2593571","2686804","2683788","NA","2686797","2682260","NA","2683788","NA","NA","2683797","NA","2686908","NA","NA","NA","NA","NA","NA","NA","NA","NA","NA","NA","NA","NA","2681820","2655354","2597369","2654586","NA","2593573","2681821","2686904","2593578","Left-Bias-Elimination","0","0","0","1920","277","-277","-160","160"
"undefined","undefined","undefined","undefined","#3d3846","legacy","True","legacy","legacy","undefined","undefined","0","0","6","6","NA","6","6","NA","6","NA","NA","6","NA","6","NA","NA","NA","NA","NA","NA","NA","NA","NA","NA","NA","NA","NA","6","0","0","0","0","0","6","6","0","7.029324269088738","Mon Jun 24 16:07:45 2024","The main experiment item","False","05 Milestone_FullExperiment_V7.osexp","C:\Users\yarbus\Desktop\Team_Dog\Milestone5_Final","C:\Users\yarbus\AppData\Local\Temp\tmpwlg83d_n.opensesame_pool\stimuli.csv","stimuli.csv","False","mono","False","18","no","white","no","yes","1080","23","legacy","6","6","C:/Users/yarbus/Desktop/Team_Dog/Milestone5_Final/Datenerhebung/Patrick.csv","legacy","Melodramatic Milgram","4.0.13","NA","NA","0","space","NA","3790.0","NA","3790","space","2","legacy","1024","2","48000","-16","experiment","NA","001.png","017.png","0","even","2687444.0","NA","2593571","2692307","2689289","NA","2692298","2687444","NA","2689289","NA","NA","2689298","NA","2692412","NA","NA","NA","NA","NA","NA","NA","NA","NA","NA","NA","NA","NA","2686973","2655354","2597369","2654586","NA","2593573","2686975","2692407","2593578","Left-Bias-Elimination","0","0","0","1920","0","0","320","-320"
"undefined","undefined","undefined","undefined","#3d3846","legacy","True","legacy","legacy","undefined","undefined","0","0","7","7","NA","7","7","NA","7","NA","NA","7","NA","7","NA","NA","NA","NA","NA","NA","NA","NA","NA","NA","NA","NA","NA","7","0","0","0","0","0","7","7","0","24.942531608479527","Mon Jun 24 16:07:45 2024","The main experiment item","False","05 Milestone_FullExperiment_V7.osexp","C:\Users\yarbus\Desktop\Team_Dog\Milestone5_Final","C:\Users\yarbus\AppData\Local\Temp\tmpwlg83d_n.opensesame_pool\stimuli.csv","stimuli.csv","False","mono","False","18","no","white","no","yes","1080","23","legacy","7","7","C:/Users/yarbus/Desktop/Team_Dog/Milestone5_Final/Datenerhebung/Patrick.csv","legacy","Melodramatic Milgram","4.0.13","NA","NA","0","space","NA","3790.0","NA","3790","space","2","legacy","1024","2","48000","-16","experiment","NA","012.png","018.png","0","even","2692976.0","NA","2593571","2698177","2695162","NA","2698171","2692976","NA","2695162","NA","NA","2695171","NA","2698281","NA","NA","NA","NA","NA","NA","NA","NA","NA","NA","NA","NA","NA","2692528","2655354","2597369","2654586","NA","2593573","2692530","2698277","2593578","Left-Bias-Elimination","0","0","0","1920","-277","277","-160","160"
"undefined","undefined","undefined","undefined","#3d3846","legacy","True","legacy","legacy","undefined","undefined","0","0","8","8","NA","8","8","NA","8","NA","NA","8","NA","8","NA","NA","NA","NA","NA","NA","NA","NA","NA","NA","NA","NA","NA","8","0","0","0","0","0","8","8","0","9.360878804898533","Mon Jun 24 16:07:45 2024","The main experiment item","False","05 Milestone_FullExperiment_V7.osexp","C:\Users\yarbus\Desktop\Team_Dog\Milestone5_Final","C:\Users\yarbus\AppData\Local\Temp\tmpwlg83d_n.opensesame_pool\stimuli.csv","stimuli.csv","False","mono","False","18","no","white","no","yes","1080","23","legacy","8","8","C:/Users/yarbus/Desktop/Team_Dog/Milestone5_Final/Datenerhebung/Patrick.csv","legacy","Melodramatic Milgram","4.0.13","NA","NA","0","space","NA","3790.0","NA","3790","space","2","legacy","1024","2","48000","-16","experiment","NA","016.png","021.png","0","even","2698813.0","NA","2593571","2703467","2700452","NA","2703461","2698813","NA","2700452","NA","NA","2700460","NA","2703571","NA","NA","NA","NA","NA","NA","NA","NA","NA","NA","NA","NA","NA","2698368","2655354","2597369","2654586","NA","2593573","2698369","2703567","2593578","Left-Bias-Elimination","0","0","0","1920","160","-160","-277","277"
"undefined","undefined","undefined","undefined","#3d3846","legacy","True","legacy","legacy","undefined","undefined","0","0","9","9","NA","9","9","NA","9","NA","NA","9","NA","9","NA","NA","NA","NA","NA","NA","NA","NA","NA","NA","NA","NA","NA","9","0","0","0","0","0","9","9","0","18.839935796068932","Mon Jun 24 16:07:45 2024","The main experiment item","False","05 Milestone_FullExperiment_V7.osexp","C:\Users\yarbus\Desktop\Team_Dog\Milestone5_Final","C:\Users\yarbus\AppData\Local\Temp\tmpwlg83d_n.opensesame_pool\stimuli.csv","stimuli.csv","False","mono","False","18","no","white","no","yes","1080","23","legacy","9","9","C:/Users/yarbus/Desktop/Team_Dog/Milestone5_Final/Datenerhebung/Patrick.csv","legacy","Melodramatic Milgram","4.0.13","NA","NA","0","space","NA","3790.0","NA","3790","space","2","legacy","1024","2","48000","-16","experiment","NA","008.png","005.png","0","even","2704148.0","NA","2593571","2708691","2705675","NA","2708683","2704148","NA","2705675","NA","NA","2705683","NA","2708795","NA","NA","NA","NA","NA","NA","NA","NA","NA","NA","NA","NA","NA","2703681","2655354","2597369","2654586","NA","2593573","2703681","2708791","2593578","Left-Bias-Elimination","0","0","0","1920","-160","160","-277","277"
"undefined","undefined","undefined","undefined","#3d3846","legacy","True","legacy","legacy","undefined","undefined","0","0","10","10","NA","10","10","NA","10","NA","NA","10","NA","10","NA","NA","NA","NA","NA","NA","NA","NA","NA","NA","NA","NA","NA","10","0","0","0","0","0","10","10","0","23.23628641241957","Mon Jun 24 16:07:45 2024","The main experiment item","False","05 Milestone_FullExperiment_V7.osexp","C:\Users\yarbus\Desktop\Team_Dog\Milestone5_Final","C:\Users\yarbus\AppData\Local\Temp\tmpwlg83d_n.opensesame_pool\stimuli.csv","stimuli.csv","False","mono","False","18","no","white","no","yes","1080","23","legacy","10","10","C:/Users/yarbus/Desktop/Team_Dog/Milestone5_Final/Datenerhebung/Patrick.csv","legacy","Melodramatic Milgram","4.0.13","NA","NA","0","space","NA","3790.0","NA","3790","space","2","legacy","1024","2","48000","-16","experiment","NA","019.png","000.png","0","even","2709333.0","NA","2593571","2713911","2710895","NA","2713904","2709333","NA","2710895","NA","NA","2710904","NA","2714015","NA","NA","NA","NA","NA","NA","NA","NA","NA","NA","NA","NA","NA","2708896","2655354","2597369","2654586","NA","2593573","2708898","2714011","2593578","Left-Bias-Elimination","0","0","0","1920","0","0","320","-320"
"undefined","undefined","undefined","undefined","#3d3846","legacy","True","legacy","legacy","undefined","undefined","0","0","11","11","NA","11","11","NA","11","NA","NA","11","NA","11","NA","NA","NA","NA","NA","NA","NA","NA","NA","NA","NA","NA","NA","11","0","0","0","0","0","11","11","0","19.75857459231308","Mon Jun 24 16:07:45 2024","The main experiment item","False","05 Milestone_FullExperiment_V7.osexp","C:\Users\yarbus\Desktop\Team_Dog\Milestone5_Final","C:\Users\yarbus\AppData\Local\Temp\tmpwlg83d_n.opensesame_pool\stimuli.csv","stimuli.csv","False","mono","False","18","no","white","no","yes","1080","23","legacy","11","11","C:/Users/yarbus/Desktop/Team_Dog/Milestone5_Final/Datenerhebung/Patrick.csv","legacy","Melodramatic Milgram","4.0.13","NA","NA","0","space","NA","3790.0","NA","3790","space","2","legacy","1024","2","48000","-16","experiment","NA","007.png","016.png","0","even","2714535.0","NA","2593571","2719261","2716237","NA","2719249","2714535","NA","2716237","NA","NA","2716249","NA","2719365","NA","NA","NA","NA","NA","NA","NA","NA","NA","NA","NA","NA","NA","2714105","2655354","2597369","2654586","NA","2593573","2714106","2719361","2593578","Left-Bias-Elimination","0","0","0","1920","-160","160","-277","277"
"undefined","undefined","undefined","undefined","#3d3846","legacy","True","legacy","legacy","undefined","undefined","0","0","12","12","NA","12","12","NA","12","NA","NA","12","NA","12","NA","NA","NA","NA","NA","NA","NA","NA","NA","NA","NA","NA","NA","12","0","0","0","0","0","12","12","0","7.738082367098381","Mon Jun 24 16:07:45 2024","The main experiment item","False","05 Milestone_FullExperiment_V7.osexp","C:\Users\yarbus\Desktop\Team_Dog\Milestone5_Final","C:\Users\yarbus\AppData\Local\Temp\tmpwlg83d_n.opensesame_pool\stimuli.csv","stimuli.csv","False","mono","False","18","no","white","no","yes","1080","23","legacy","12","12","C:/Users/yarbus/Desktop/Team_Dog/Milestone5_Final/Datenerhebung/Patrick.csv","legacy","Melodramatic Milgram","4.0.13","NA","NA","0","space","NA","3790.0","NA","3790","space","2","legacy","1024","2","48000","-16","experiment","NA","004.png","015.png","0","even","2719913.0","NA","2593571","2724702","2721687","NA","2724696","2719913","NA","2721687","NA","NA","2721696","NA","2724806","NA","NA","NA","NA","NA","NA","NA","NA","NA","NA","NA","NA","NA","2719434","2655354","2597369","2654586","NA","2593573","2719436","2724802","2593578","Left-Bias-Elimination","0","0","0","1920","160","-160","277","-277"
"undefined","undefined","undefined","undefined","#3d3846","legacy","True","legacy","legacy","undefined","undefined","0","0","13","13","NA","13","13","NA","13","NA","NA","13","NA","13","NA","NA","NA","NA","NA","NA","NA","NA","NA","NA","NA","NA","NA","13","0","0","0","0","0","13","13","0","5.692191999572765","Mon Jun 24 16:07:45 2024","The main experiment item","False","05 Milestone_FullExperiment_V7.osexp","C:\Users\yarbus\Desktop\Team_Dog\Milestone5_Final","C:\Users\yarbus\AppData\Local\Temp\tmpwlg83d_n.opensesame_pool\stimuli.csv","stimuli.csv","False","mono","False","18","no","white","no","yes","1080","23","legacy","13","13","C:/Users/yarbus/Desktop/Team_Dog/Milestone5_Final/Datenerhebung/Patrick.csv","legacy","Melodramatic Milgram","4.0.13","NA","NA","0","space","NA","3790.0","NA","3790","space","2","legacy","1024","2","48000","-16","experiment","NA","014.png","020.png","0","even","2725379.0","NA","2593571","2731616","2728601","NA","2731610","2725379","NA","2728602","NA","NA","2728610","NA","2731720","NA","NA","NA","NA","NA","NA","NA","NA","NA","NA","NA","NA","NA","2724911","2655354","2597369","2654586","NA","2593573","2724913","2731716","2593578","Left-Bias-Elimination","0","0","0","1920","0","0","-320","320"
"undefined","undefined","undefined","undefined","#3d3846","legacy","True","legacy","legacy","undefined","undefined","0","0","14","14","NA","14","14","NA","14","NA","NA","14","NA","14","NA","NA","NA","NA","NA","NA","NA","NA","NA","NA","NA","NA","NA","14","0","0","0","0","0","14","14","0","22.637068732501604","Mon Jun 24 16:07:45 2024","The main experiment item","False","05 Milestone_FullExperiment_V7.osexp","C:\Users\yarbus\Desktop\Team_Dog\Milestone5_Final","C:\Users\yarbus\AppData\Local\Temp\tmpwlg83d_n.opensesame_pool\stimuli.csv","stimuli.csv","False","mono","False","18","no","white","no","yes","1080","23","legacy","14","14","C:/Users/yarbus/Desktop/Team_Dog/Milestone5_Final/Datenerhebung/Patrick.csv","legacy","Melodramatic Milgram","4.0.13","NA","NA","0","space","NA","3790.0","NA","3790","space","2","legacy","1024","2","48000","-16","experiment","NA","009.png","008.png","0","even","2732253.0","NA","2593571","2737057","2734040","NA","2737050","2732253","NA","2734040","NA","NA","2734050","NA","2737161","NA","NA","NA","NA","NA","NA","NA","NA","NA","NA","NA","NA","NA","2731806","2655354","2597369","2654586","NA","2593573","2731807","2737157","2593578","Left-Bias-Elimination","0","0","0","1920","160","-160","277","-277"
"undefined","undefined","undefined","undefined","#3d3846","legacy","True","legacy","legacy","undefined","undefined","0","0","15","15","NA","15","15","NA","15","NA","NA","15","NA","15","NA","NA","NA","NA","NA","NA","NA","NA","NA","NA","NA","NA","NA","15","0","0","0","0","0","15","15","0","20.480308560175512","Mon Jun 24 16:07:45 2024","The main experiment item","False","05 Milestone_FullExperiment_V7.osexp","C:\Users\yarbus\Desktop\Team_Dog\Milestone5_Final","C:\Users\yarbus\AppData\Local\Temp\tmpwlg83d_n.opensesame_pool\stimuli.csv","stimuli.csv","False","mono","False","18","no","white","no","yes","1080","23","legacy","15","15","C:/Users/yarbus/Desktop/Team_Dog/Milestone5_Final/Datenerhebung/Patrick.csv","legacy","Melodramatic Milgram","4.0.13","NA","NA","0","space","NA","3790.0","NA","3790","space","2","legacy","1024","2","48000","-16","experiment","NA","006.png","014.png","0","even","2737729.0","NA","2593571","2742290","2739276","NA","2742284","2737729","NA","2739276","NA","NA","2739284","NA","2742395","NA","NA","NA","NA","NA","NA","NA","NA","NA","NA","NA","NA","NA","2737250","2655354","2597369","2654586","NA","2593573","2737252","2742390","2593578","Left-Bias-Elimination","0","0","0","1920","-160","160","277","-277"
"undefined","undefined","undefined","undefined","#3d3846","legacy","True","legacy","legacy","undefined","undefined","0","0","16","16","NA","16","16","NA","16","NA","NA","16","NA","16","NA","NA","NA","NA","NA","NA","NA","NA","NA","NA","NA","NA","NA","16","0","0","0","0","0","16","16","0","24.706043438802595","Mon Jun 24 16:07:45 2024","The main experiment item","False","05 Milestone_FullExperiment_V7.osexp","C:\Users\yarbus\Desktop\Team_Dog\Milestone5_Final","C:\Users\yarbus\AppData\Local\Temp\tmpwlg83d_n.opensesame_pool\stimuli.csv","stimuli.csv","False","mono","False","18","no","white","no","yes","1080","23","legacy","16","16","C:/Users/yarbus/Desktop/Team_Dog/Milestone5_Final/Datenerhebung/Patrick.csv","legacy","Melodramatic Milgram","4.0.13","NA","NA","0","space","NA","3790.0","NA","3790","space","2","legacy","1024","2","48000","-16","experiment","NA","003.png","010.png","0","even","2742968.0","NA","2593571","2747490","2744472","NA","2747484","2742968","NA","2744472","NA","NA","2744484","NA","2747594","NA","NA","NA","NA","NA","NA","NA","NA","NA","NA","NA","NA","NA","2742499","2655354","2597369","2654586","NA","2593573","2742501","2747590","2593578","Left-Bias-Elimination","0","0","0","1920","277","-277","160","-160"
"undefined","undefined","undefined","undefined","#3d3846","legacy","True","legacy","legacy","undefined","undefined","0","0","17","17","NA","17","17","NA","17","NA","NA","17","NA","17","NA","NA","NA","NA","NA","NA","NA","NA","NA","NA","NA","NA","NA","17","0","0","0","0","0","17","17","0","20.57067483190569","Mon Jun 24 16:07:45 2024","The main experiment item","False","05 Milestone_FullExperiment_V7.osexp","C:\Users\yarbus\Desktop\Team_Dog\Milestone5_Final","C:\Users\yarbus\AppData\Local\Temp\tmpwlg83d_n.opensesame_pool\stimuli.csv","stimuli.csv","False","mono","False","18","no","white","no","yes","1080","23","legacy","17","17","C:/Users/yarbus/Desktop/Team_Dog/Milestone5_Final/Datenerhebung/Patrick.csv","legacy","Melodramatic Milgram","4.0.13","NA","NA","0","space","NA","3790.0","NA","3790","space","2","legacy","1024","2","48000","-16","experiment","NA","018.png","009.png","0","even","2748123.0","NA","2593571","2752884","2749869","NA","2752878","2748123","NA","2749869","NA","NA","2749878","NA","2752988","NA","NA","NA","NA","NA","NA","NA","NA","NA","NA","NA","NA","NA","2747678","2655354","2597369","2654586","NA","2593573","2747680","2752984","2593578","Left-Bias-Elimination","0","0","0","1920","0","0","-320","320"
"undefined","undefined","undefined","undefined","#3d3846","legacy","True","legacy","legacy","undefined","undefined","0","0","18","18","NA","18","18","NA","18","NA","NA","18","NA","18","NA","NA","NA","NA","NA","NA","NA","NA","NA","NA","NA","NA","NA","18","0","0","0","0","0","18","18","0","20.106923022680544","Mon Jun 24 16:07:45 2024","The main experiment item","False","05 Milestone_FullExperiment_V7.osexp","C:\Users\yarbus\Desktop\Team_Dog\Milestone5_Final","C:\Users\yarbus\AppData\Local\Temp\tmpwlg83d_n.opensesame_pool\stimuli.csv","stimuli.csv","False","mono","False","18","no","white","no","yes","1080","23","legacy","18","18","C:/Users/yarbus/Desktop/Team_Dog/Milestone5_Final/Datenerhebung/Patrick.csv","legacy","Melodramatic Milgram","4.0.13","NA","NA","0","space","NA","3790.0","NA","3790","space","2","legacy","1024","2","48000","-16","experiment","NA","005.png","019.png","0","even","2753557.0","NA","2593571","2758108","2755094","NA","2758102","2753557","NA","2755094","NA","NA","2755102","NA","2758212","NA","NA","NA","NA","NA","NA","NA","NA","NA","NA","NA","NA","NA","2753080","2655354","2597369","2654586","NA","2593573","2753082","2758208","2593578","Left-Bias-Elimination","0","0","0","1920","-277","277","160","-160"
"undefined","undefined","undefined","undefined","#3d3846","legacy","True","legacy","legacy","undefined","undefined","0","0","19","19","NA","19","19","NA","19","NA","NA","19","NA","19","NA","NA","NA","NA","NA","NA","NA","NA","NA","NA","NA","NA","NA","19","0","0","0","0","0","19","19","0","27.861097755831484","Mon Jun 24 16:07:45 2024","The main experiment item","False","05 Milestone_FullExperiment_V7.osexp","C:\Users\yarbus\Desktop\Team_Dog\Milestone5_Final","C:\Users\yarbus\AppData\Local\Temp\tmpwlg83d_n.opensesame_pool\stimuli.csv","stimuli.csv","False","mono","False","18","no","white","no","yes","1080","23","legacy","19","19","C:/Users/yarbus/Desktop/Team_Dog/Milestone5_Final/Datenerhebung/Patrick.csv","legacy","Melodramatic Milgram","4.0.13","NA","NA","0","space","NA","3790.0","NA","3790","space","2","legacy","1024","2","48000","-16","experiment","NA","013.png","012.png","0","even","2758725.0","NA","2593571","2763243","2760228","NA","2763236","2758725","NA","2760228","NA","NA","2760236","NA","2763347","NA","NA","NA","NA","NA","NA","NA","NA","NA","NA","NA","NA","NA","2758286","2655354","2597369","2654586","NA","2593573","2758287","2763343","2593578","Left-Bias-Elimination","0","0","0","1920","-277","277","160","-160"
"undefined","undefined","undefined","undefined","#3d3846","legacy","True","legacy","legacy","undefined","undefined","0","0","20","20","NA","20","20","NA","20","NA","NA","20","NA","20","NA","NA","NA","NA","NA","NA","NA","NA","NA","NA","NA","NA","NA","20","0","0","0","0","0","20","20","0","18.161724834387343","Mon Jun 24 16:07:45 2024","The main experiment item","False","05 Milestone_FullExperiment_V7.osexp","C:\Users\yarbus\Desktop\Team_Dog\Milestone5_Final","C:\Users\yarbus\AppData\Local\Temp\tmpwlg83d_n.opensesame_pool\stimuli.csv","stimuli.csv","False","mono","False","18","no","white","no","yes","1080","23","legacy","20","20","C:/Users/yarbus/Desktop/Team_Dog/Milestone5_Final/Datenerhebung/Patrick.csv","legacy","Melodramatic Milgram","4.0.13","NA","NA","0","space","NA","3790.0","NA","3790","space","2","legacy","1024","2","48000","-16","experiment","NA","000.png","011.png","0","even","2763917.0","NA","2593571","2768470","2765452","NA","2768462","2763917","NA","2765452","NA","NA","2765462","NA","2768574","NA","NA","NA","NA","NA","NA","NA","NA","NA","NA","NA","NA","NA","2763434","2655354","2597369","2654586","NA","2593573","2763435","2768570","2593578","Left-Bias-Elimination","0","0","0","1920","320","-320","0","0"
"undefined","undefined","undefined","undefined","#3d3846","legacy","True","legacy","legacy","undefined","undefined","0","0","21","21","NA","21","21","NA","21","NA","NA","21","NA","21","NA","NA","NA","NA","NA","NA","NA","NA","NA","NA","NA","NA","NA","21","0","0","0","0","0","21","21","0","21.719528613669272","Mon Jun 24 16:07:45 2024","The main experiment item","False","05 Milestone_FullExperiment_V7.osexp","C:\Users\yarbus\Desktop\Team_Dog\Milestone5_Final","C:\Users\yarbus\AppData\Local\Temp\tmpwlg83d_n.opensesame_pool\stimuli.csv","stimuli.csv","False","mono","False","18","no","white","no","yes","1080","23","legacy","21","21","C:/Users/yarbus/Desktop/Team_Dog/Milestone5_Final/Datenerhebung/Patrick.csv","legacy","Melodramatic Milgram","4.0.13","NA","NA","0","space","NA","3790.0","NA","3790","space","2","legacy","1024","2","48000","-16","experiment","NA","002.png","006.png","0","even","2769111.0","NA","2593571","2774010","2770991","NA","2774000","2769111","NA","2770991","NA","NA","2771000","NA","2774114","NA","NA","NA","NA","NA","NA","NA","NA","NA","NA","NA","NA","NA","2768664","2655354","2597369","2654586","NA","2593573","2768665","2774110","2593578","Left-Bias-Elimination","0","0","0","1920","-160","160","277","-277"
"undefined","undefined","undefined","undefined","#3d3846","legacy","True","legacy","legacy","undefined","undefined","0","0","22","22","NA","22","22","NA","22","NA","NA","22","NA","22","NA","NA","NA","NA","NA","NA","NA","NA","NA","NA","NA","NA","NA","22","0","0","0","0","0","22","22","0","23.17486739379538","Mon Jun 24 16:07:45 2024","The main experiment item","False","05 Milestone_FullExperiment_V7.osexp","C:\Users\yarbus\Desktop\Team_Dog\Milestone5_Final","C:\Users\yarbus\AppData\Local\Temp\tmpwlg83d_n.opensesame_pool\stimuli.csv","stimuli.csv","False","mono","False","18","no","white","no","yes","1080","23","legacy","22","22","C:/Users/yarbus/Desktop/Team_Dog/Milestone5_Final/Datenerhebung/Patrick.csv","legacy","Melodramatic Milgram","4.0.13","NA","NA","0","space","NA","3790.0","NA","3790","space","2","legacy","1024","2","48000","-16","experiment","NA","002.png","006.png","0","even","2774602.0","NA","2593571","2779155","2776141","NA","2779149","2774602","NA","2776141","NA","NA","2776149","NA","2779259","NA","NA","NA","NA","NA","NA","NA","NA","NA","NA","NA","NA","NA","2774191","2655354","2597369","2654586","NA","2593573","2774193","2779255","2593578","Left-Bias-Elimination","0","0","0","1920","277","-277","160","-160"
"undefined","undefined","undefined","undefined","#3d3846","legacy","True","legacy","legacy","undefined","undefined","0","0","23","23","NA","23","23","NA","23","NA","NA","23","NA","23","NA","NA","NA","NA","NA","NA","NA","NA","NA","NA","NA","NA","NA","23","0","0","0","0","0","23","23","0","28.676503619513948","Mon Jun 24 16:07:45 2024","The main experiment item","False","05 Milestone_FullExperiment_V7.osexp","C:\Users\yarbus\Desktop\Team_Dog\Milestone5_Final","C:\Users\yarbus\AppData\Local\Temp\tmpwlg83d_n.opensesame_pool\stimuli.csv","stimuli.csv","False","mono","False","18","no","white","no","yes","1080","23","legacy","23","23","C:/Users/yarbus/Desktop/Team_Dog/Milestone5_Final/Datenerhebung/Patrick.csv","legacy","Melodramatic Milgram","4.0.13","NA","NA","0","space","NA","3790.0","NA","3790","space","2","legacy","1024","2","48000","-16","experiment","NA","000.png","011.png","0","even","2779745.0","NA","2593571","2784266","2781251","NA","2784259","2779745","NA","2781251","NA","NA","2781259","NA","2784370","NA","NA","NA","NA","NA","NA","NA","NA","NA","NA","NA","NA","NA","2779334","2655354","2597369","2654586","NA","2593573","2779335","2784366","2593578","Left-Bias-Elimination","0","0","0","1920","320","-320","0","0"
"undefined","undefined","undefined","undefined","#3d3846","legacy","True","legacy","legacy","undefined","undefined","0","0","24","24","NA","24","24","NA","24","NA","NA","24","NA","24","NA","NA","NA","NA","NA","NA","NA","NA","NA","NA","NA","NA","NA","24","0","0","0","0","0","24","24","0","28.292707823748533","Mon Jun 24 16:07:45 2024","The main experiment item","False","05 Milestone_FullExperiment_V7.osexp","C:\Users\yarbus\Desktop\Team_Dog\Milestone5_Final","C:\Users\yarbus\AppData\Local\Temp\tmpwlg83d_n.opensesame_pool\stimuli.csv","stimuli.csv","False","mono","False","18","no","white","no","yes","1080","23","legacy","24","24","C:/Users/yarbus/Desktop/Team_Dog/Milestone5_Final/Datenerhebung/Patrick.csv","legacy","Melodramatic Milgram","4.0.13","NA","NA","0","space","NA","3790.0","NA","3790","space","2","legacy","1024","2","48000","-16","experiment","NA","011.png","004.png","0","even","2784857.0","NA","2593571","2789705","2786686","NA","2789696","2784857","NA","2786686","NA","NA","2786696","NA","2789809","NA","NA","NA","NA","NA","NA","NA","NA","NA","NA","NA","NA","NA","2784447","2655354","2597369","2654586","NA","2593573","2784449","2789805","2593578","Left-Bias-Elimination","0","0","0","1920","-320","320","0","0"
"undefined","undefined","undefined","undefined","#3d3846","legacy","True","legacy","legacy","undefined","undefined","0","0","25","25","NA","25","25","NA","25","NA","NA","25","NA","25","NA","NA","NA","NA","NA","NA","NA","NA","NA","NA","NA","NA","NA","25","0","0","0","0","0","25","25","0","14.112016530602643","Mon Jun 24 16:07:45 2024","The main experiment item","False","05 Milestone_FullExperiment_V7.osexp","C:\Users\yarbus\Desktop\Team_Dog\Milestone5_Final","C:\Users\yarbus\AppData\Local\Temp\tmpwlg83d_n.opensesame_pool\stimuli.csv","stimuli.csv","False","mono","False","18","no","white","no","yes","1080","23","legacy","25","25","C:/Users/yarbus/Desktop/Team_Dog/Milestone5_Final/Datenerhebung/Patrick.csv","legacy","Melodramatic Milgram","4.0.13","NA","NA","0","space","NA","3790.0","NA","3790","space","2","legacy","1024","2","48000","-16","experiment","NA","015.png","013.png","0","even","2790302.0","NA","2593571","2794846","2791824","NA","2794834","2790302","NA","2791824","NA","NA","2791834","NA","2794950","NA","NA","NA","NA","NA","NA","NA","NA","NA","NA","NA","NA","NA","2789892","2655354","2597369","2654586","NA","2593573","2789893","2794946","2593578","Left-Bias-Elimination","0","0","0","1920","-277","277","-160","160"
"undefined","undefined","undefined","undefined","#3d3846","legacy","True","legacy","legacy","undefined","undefined","0","0","26","26","NA","26","26","NA","26","NA","NA","26","NA","26","NA","NA","NA","NA","NA","NA","NA","NA","NA","NA","NA","NA","NA","26","0","0","0","0","0","26","26","0","20.74129852444153","Mon Jun 24 16:07:45 2024","The main experiment item","False","05 Milestone_FullExperiment_V7.osexp","C:\Users\yarbus\Desktop\Team_Dog\Milestone5_Final","C:\Users\yarbus\AppData\Local\Temp\tmpwlg83d_n.opensesame_pool\stimuli.csv","stimuli.csv","False","mono","False","18","no","white","no","yes","1080","23","legacy","26","26","C:/Users/yarbus/Desktop/Team_Dog/Milestone5_Final/Datenerhebung/Patrick.csv","legacy","Melodramatic Milgram","4.0.13","NA","NA","0","space","NA","3790.0","NA","3790","space","2","legacy","1024","2","48000","-16","experiment","NA","020.png","007.png","0","even","2795446.0","NA","2593571","2799970","2796957","NA","2799964","2795446","NA","2796957","NA","NA","2796964","NA","2800074","NA","NA","NA","NA","NA","NA","NA","NA","NA","NA","NA","NA","NA","2795036","2655354","2597369","2654586","NA","2593573","2795037","2800070","2593578","Left-Bias-Elimination","0","0","0","1920","160","-160","-277","277"
"undefined","undefined","undefined","undefined","#3d3846","legacy","True","legacy","legacy","undefined","undefined","0","0","27","27","NA","27","27","NA","27","NA","NA","27","NA","27","NA","NA","NA","NA","NA","NA","NA","NA","NA","NA","NA","NA","NA","27","0","0","0","0","0","27","27","0","26.905890816696612","Mon Jun 24 16:07:45 2024","The main experiment item","False","05 Milestone_FullExperiment_V7.osexp","C:\Users\yarbus\Desktop\Team_Dog\Milestone5_Final","C:\Users\yarbus\AppData\Local\Temp\tmpwlg83d_n.opensesame_pool\stimuli.csv","stimuli.csv","False","mono","False","18","no","white","no","yes","1080","23","legacy","27","27","C:/Users/yarbus/Desktop/Team_Dog/Milestone5_Final/Datenerhebung/Patrick.csv","legacy","Melodramatic Milgram","4.0.13","NA","NA","0","space","NA","3790.0","NA","3790","space","2","legacy","1024","2","48000","-16","experiment","NA","021.png","003.png","0","even","2800582.0","NA","2593571","2805105","2802084","NA","2805093","2800582","NA","2802084","NA","NA","2802093","NA","2805209","NA","NA","NA","NA","NA","NA","NA","NA","NA","NA","NA","NA","NA","2800169","2655354","2597369","2654586","NA","2593573","2800174","2805205","2593578","Left-Bias-Elimination","0","0","0","1920","-320","320","0","0"
"undefined","undefined","undefined","undefined","#3d3846","legacy","True","legacy","legacy","undefined","undefined","0","0","28","28","NA","28","28","NA","28","NA","NA","28","NA","28","NA","NA","NA","NA","NA","NA","NA","NA","NA","NA","NA","NA","NA","28","0","0","0","0","0","28","28","0","25.675154683078365","Mon Jun 24 16:07:45 2024","The main experiment item","False","05 Milestone_FullExperiment_V7.osexp","C:\Users\yarbus\Desktop\Team_Dog\Milestone5_Final","C:\Users\yarbus\AppData\Local\Temp\tmpwlg83d_n.opensesame_pool\stimuli.csv","stimuli.csv","False","mono","False","18","no","white","no","yes","1080","23","legacy","28","28","C:/Users/yarbus/Desktop/Team_Dog/Milestone5_Final/Datenerhebung/Patrick.csv","legacy","Melodramatic Milgram","4.0.13","NA","NA","0","space","NA","3790.0","NA","3790","space","2","legacy","1024","2","48000","-16","experiment","NA","010.png","002.png","0","even","2805725.0","NA","2593571","2810369","2807353","NA","2810360","2805725","NA","2807353","NA","NA","2807360","NA","2810474","NA","NA","NA","NA","NA","NA","NA","NA","NA","NA","NA","NA","NA","2805312","2655354","2597369","2654586","NA","2593573","2805315","2810469","2593578","Left-Bias-Elimination","0","0","0","1920","277","-277","-160","160"
"undefined","undefined","undefined","undefined","#3d3846","legacy","True","legacy","legacy","undefined","undefined","0","0","29","29","NA","29","29","NA","29","NA","NA","29","NA","29","NA","NA","NA","NA","NA","NA","NA","NA","NA","NA","NA","NA","NA","29","0","0","0","0","0","29","29","0","25.06598709007873","Mon Jun 24 16:07:45 2024","The main experiment item","False","05 Milestone_FullExperiment_V7.osexp","C:\Users\yarbus\Desktop\Team_Dog\Milestone5_Final","C:\Users\yarbus\AppData\Local\Temp\tmpwlg83d_n.opensesame_pool\stimuli.csv","stimuli.csv","False","mono","False","18","no","white","no","yes","1080","23","legacy","29","29","C:/Users/yarbus/Desktop/Team_Dog/Milestone5_Final/Datenerhebung/Patrick.csv","legacy","Melodramatic Milgram","4.0.13","NA","NA","0","space","NA","3790.0","NA","3790","space","2","legacy","1024","2","48000","-16","experiment","NA","017.png","001.png","0","even","2810969.0","NA","2593571","2815582","2812567","NA","2815576","2810969","NA","2812567","NA","NA","2812576","NA","2815686","NA","NA","NA","NA","NA","NA","NA","NA","NA","NA","NA","NA","NA","2810558","2655354","2597369","2654586","NA","2593573","2810561","2815682","2593578","Left-Bias-Elimination","0","0","0","1920","277","-277","-160","160"
"undefined","undefined","undefined","undefined","#3d3846","legacy","True","legacy","legacy","undefined","undefined","0","0","30","30","NA","30","30","NA","30","NA","NA","30","NA","30","NA","NA","NA","NA","NA","NA","NA","NA","NA","NA","NA","NA","NA","30","0","0","0","0","0","30","30","0","27.100244096317713","Mon Jun 24 16:07:45 2024","The main experiment item","False","05 Milestone_FullExperiment_V7.osexp","C:\Users\yarbus\Desktop\Team_Dog\Milestone5_Final","C:\Users\yarbus\AppData\Local\Temp\tmpwlg83d_n.opensesame_pool\stimuli.csv","stimuli.csv","False","mono","False","18","no","white","no","yes","1080","23","legacy","30","30","C:/Users/yarbus/Desktop/Team_Dog/Milestone5_Final/Datenerhebung/Patrick.csv","legacy","Melodramatic Milgram","4.0.13","NA","NA","0","space","NA","3790.0","NA","3790","space","2","legacy","1024","2","48000","-16","experiment","NA","001.png","017.png","0","even","2816170.0","NA","2593571","2820691","2817672","NA","2820685","2816170","NA","2817673","NA","NA","2817685","NA","2820795","NA","NA","NA","NA","NA","NA","NA","NA","NA","NA","NA","NA","NA","2815760","2655354","2597369","2654586","NA","2593573","2815761","2820791","2593578","Left-Bias-Elimination","0","0","0","1920","0","0","320","-320"
"undefined","undefined","undefined","undefined","#3d3846","legacy","True","legacy","legacy","undefined","undefined","0","0","31","31","NA","31","31","NA","31","NA","NA","31","NA","31","NA","NA","NA","NA","NA","NA","NA","NA","NA","NA","NA","NA","NA","31","0","0","0","0","0","31","31","0","27.61742499510048","Mon Jun 24 16:07:45 2024","The main experiment item","False","05 Milestone_FullExperiment_V7.osexp","C:\Users\yarbus\Desktop\Team_Dog\Milestone5_Final","C:\Users\yarbus\AppData\Local\Temp\tmpwlg83d_n.opensesame_pool\stimuli.csv","stimuli.csv","False","mono","False","18","no","white","no","yes","1080","23","legacy","31","31","C:/Users/yarbus/Desktop/Team_Dog/Milestone5_Final/Datenerhebung/Patrick.csv","legacy","Melodramatic Milgram","4.0.13","NA","NA","0","space","NA","3790.0","NA","3790","space","2","legacy","1024","2","48000","-16","experiment","NA","012.png","018.png","0","even","2821280.0","NA","2593571","2825845","2822826","NA","2825835","2821280","NA","2822826","NA","NA","2822835","NA","2825949","NA","NA","NA","NA","NA","NA","NA","NA","NA","NA","NA","NA","NA","2820870","2655354","2597369","2654586","NA","2593573","2820872","2825945","2593578","Left-Bias-Elimination","0","0","0","1920","-277","277","-160","160"
"undefined","undefined","undefined","undefined","#3d3846","legacy","True","legacy","legacy","undefined","undefined","0","0","32","32","NA","32","32","NA","32","NA","NA","32","NA","32","NA","NA","NA","NA","NA","NA","NA","NA","NA","NA","NA","NA","NA","32","0","0","0","0","0","32","32","0","21.619236267731505","Mon Jun 24 16:07:45 2024","The main experiment item","False","05 Milestone_FullExperiment_V7.osexp","C:\Users\yarbus\Desktop\Team_Dog\Milestone5_Final","C:\Users\yarbus\AppData\Local\Temp\tmpwlg83d_n.opensesame_pool\stimuli.csv","stimuli.csv","False","mono","False","18","no","white","no","yes","1080","23","legacy","32","32","C:/Users/yarbus/Desktop/Team_Dog/Milestone5_Final/Datenerhebung/Patrick.csv","legacy","Melodramatic Milgram","4.0.13","NA","NA","0","space","NA","3790.0","NA","3790","space","2","legacy","1024","2","48000","-16","experiment","NA","016.png","021.png","0","even","2826434.0","NA","2593571","2831100","2828086","NA","2831094","2826434","NA","2828086","NA","NA","2828094","NA","2831204","NA","NA","NA","NA","NA","NA","NA","NA","NA","NA","NA","NA","NA","2826022","2655354","2597369","2654586","NA","2593573","2826026","2831200","2593578","Left-Bias-Elimination","0","0","0","1920","160","-160","-277","277"
"undefined","undefined","undefined","undefined","#3d3846","legacy","True","legacy","legacy","undefined","undefined","0","0","33","33","NA","33","33","NA","33","NA","NA","33","NA","33","NA","NA","NA","NA","NA","NA","NA","NA","NA","NA","NA","NA","NA","33","0","0","0","0","0","33","33","0","29.3242132743574","Mon Jun 24 16:07:45 2024","The main experiment item","False","05 Milestone_FullExperiment_V7.osexp","C:\Users\yarbus\Desktop\Team_Dog\Milestone5_Final","C:\Users\yarbus\AppData\Local\Temp\tmpwlg83d_n.opensesame_pool\stimuli.csv","stimuli.csv","False","mono","False","18","no","white","no","yes","1080","23","legacy","33","33","C:/Users/yarbus/Desktop/Team_Dog/Milestone5_Final/Datenerhebung/Patrick.csv","legacy","Melodramatic Milgram","4.0.13","NA","NA","0","space","NA","3790.0","NA","3790","space","2","legacy","1024","2","48000","-16","experiment","NA","008.png","005.png","0","even","2831702.0","NA","2593571","2836454","2833435","NA","2836446","2831702","NA","2833435","NA","NA","2833446","NA","2836558","NA","NA","NA","NA","NA","NA","NA","NA","NA","NA","NA","NA","NA","2831290","2655354","2597369","2654586","NA","2593573","2831293","2836554","2593578","Left-Bias-Elimination","0","0","0","1920","-160","160","-277","277"
"undefined","undefined","undefined","undefined","#3d3846","legacy","True","legacy","legacy","undefined","undefined","0","0","34","34","NA","34","34","NA","34","NA","NA","34","NA","34","NA","NA","NA","NA","NA","NA","NA","NA","NA","NA","NA","NA","NA","34","0","0","0","0","0","34","34","0","22.09871832663603","Mon Jun 24 16:07:45 2024","The main experiment item","False","05 Milestone_FullExperiment_V7.osexp","C:\Users\yarbus\Desktop\Team_Dog\Milestone5_Final","C:\Users\yarbus\AppData\Local\Temp\tmpwlg83d_n.opensesame_pool\stimuli.csv","stimuli.csv","False","mono","False","18","no","white","no","yes","1080","23","legacy","34","34","C:/Users/yarbus/Desktop/Team_Dog/Milestone5_Final/Datenerhebung/Patrick.csv","legacy","Melodramatic Milgram","4.0.13","NA","NA","0","space","NA","3790.0","NA","3790","space","2","legacy","1024","2","48000","-16","experiment","NA","019.png","000.png","0","even","2837088.0","NA","2593571","2841830","2838809","NA","2841820","2837088","NA","2838809","NA","NA","2838820","NA","2841934","NA","NA","NA","NA","NA","NA","NA","NA","NA","NA","NA","NA","NA","2836678","2655354","2597369","2654586","NA","2593573","2836679","2841930","2593578","Left-Bias-Elimination","0","0","0","1920","0","0","320","-320"
"undefined","undefined","undefined","undefined","#3d3846","legacy","True","legacy","legacy","undefined","undefined","0","0","35","35","NA","35","35","NA","35","NA","NA","35","NA","35","NA","NA","NA","NA","NA","NA","NA","NA","NA","NA","NA","NA","NA","35","0","0","0","0","0","35","35","0","17.60050603363436","Mon Jun 24 16:07:45 2024","The main experiment item","False","05 Milestone_FullExperiment_V7.osexp","C:\Users\yarbus\Desktop\Team_Dog\Milestone5_Final","C:\Users\yarbus\AppData\Local\Temp\tmpwlg83d_n.opensesame_pool\stimuli.csv","stimuli.csv","False","mono","False","18","no","white","no","yes","1080","23","legacy","35","35","C:/Users/yarbus/Desktop/Team_Dog/Milestone5_Final/Datenerhebung/Patrick.csv","legacy","Melodramatic Milgram","4.0.13","NA","NA","0","space","NA","3790.0","NA","3790","space","2","legacy","1024","2","48000","-16","experiment","NA","007.png","016.png","0","even","2842433.0","NA","2593571","2847056","2844042","NA","2847050","2842433","NA","2844042","NA","NA","2844050","NA","2847160","NA","NA","NA","NA","NA","NA","NA","NA","NA","NA","NA","NA","NA","2842023","2655354","2597369","2654586","NA","2593573","2842024","2847156","2593578","Left-Bias-Elimination","0","0","0","1920","-160","160","-277","277"
"undefined","undefined","undefined","undefined","#3d3846","legacy","True","legacy","legacy","undefined","undefined","0","0","36","36","NA","36","36","NA","36","NA","NA","36","NA","36","NA","NA","NA","NA","NA","NA","NA","NA","NA","NA","NA","NA","NA","36","0","0","0","0","0","36","36","0","15.857015588060772","Mon Jun 24 16:07:45 2024","The main experiment item","False","05 Milestone_FullExperiment_V7.osexp","C:\Users\yarbus\Desktop\Team_Dog\Milestone5_Final","C:\Users\yarbus\AppData\Local\Temp\tmpwlg83d_n.opensesame_pool\stimuli.csv","stimuli.csv","False","mono","False","18","no","white","no","yes","1080","23","legacy","36","36","C:/Users/yarbus/Desktop/Team_Dog/Milestone5_Final/Datenerhebung/Patrick.csv","legacy","Melodramatic Milgram","4.0.13","NA","NA","0","space","NA","3790.0","NA","3790","space","2","legacy","1024","2","48000","-16","experiment","NA","004.png","015.png","0","even","2847644.0","NA","2593571","2852168","2849146","NA","2852158","2847644","NA","2849146","NA","NA","2849158","NA","2852272","NA","NA","NA","NA","NA","NA","NA","NA","NA","NA","NA","NA","NA","2847234","2655354","2597369","2654586","NA","2593573","2847235","2852268","2593578","Left-Bias-Elimination","0","0","0","1920","160","-160","277","-277"
"undefined","undefined","undefined","undefined","#3d3846","legacy","True","legacy","legacy","undefined","undefined","0","0","37","37","NA","37","37","NA","37","NA","NA","37","NA","37","NA","NA","NA","NA","NA","NA","NA","NA","NA","NA","NA","NA","NA","37","0","0","0","0","0","37","37","0","25.43272118511899","Mon Jun 24 16:07:45 2024","The main experiment item","False","05 Milestone_FullExperiment_V7.osexp","C:\Users\yarbus\Desktop\Team_Dog\Milestone5_Final","C:\Users\yarbus\AppData\Local\Temp\tmpwlg83d_n.opensesame_pool\stimuli.csv","stimuli.csv","False","mono","False","18","no","white","no","yes","1080","23","legacy","37","37","C:/Users/yarbus/Desktop/Team_Dog/Milestone5_Final/Datenerhebung/Patrick.csv","legacy","Melodramatic Milgram","4.0.13","NA","NA","0","space","NA","3790.0","NA","3790","space","2","legacy","1024","2","48000","-16","experiment","NA","014.png","020.png","0","even","2852794.0","NA","2593571","2857309","2854296","NA","2857303","2852794","NA","2854296","NA","NA","2854303","NA","2857413","NA","NA","NA","NA","NA","NA","NA","NA","NA","NA","NA","NA","NA","2852383","2655354","2597369","2654586","NA","2593573","2852384","2857409","2593578","Left-Bias-Elimination","0","0","0","1920","0","0","-320","320"
"undefined","undefined","undefined","undefined","#3d3846","legacy","True","legacy","legacy","undefined","undefined","0","0","38","38","NA","38","38","NA","38","NA","NA","38","NA","38","NA","NA","NA","NA","NA","NA","NA","NA","NA","NA","NA","NA","NA","38","0","0","0","0","0","38","38","0","10.844256588627923","Mon Jun 24 16:07:45 2024","The main experiment item","False","05 Milestone_FullExperiment_V7.osexp","C:\Users\yarbus\Desktop\Team_Dog\Milestone5_Final","C:\Users\yarbus\AppData\Local\Temp\tmpwlg83d_n.opensesame_pool\stimuli.csv","stimuli.csv","False","mono","False","18","no","white","no","yes","1080","23","legacy","38","38","C:/Users/yarbus/Desktop/Team_Dog/Milestone5_Final/Datenerhebung/Patrick.csv","legacy","Melodramatic Milgram","4.0.13","NA","NA","0","space","NA","3790.0","NA","3790","space","2","legacy","1024","2","48000","-16","experiment","NA","009.png","008.png","0","even","2857913.0","NA","2593571","2862434","2859419","NA","2862428","2857913","NA","2859419","NA","NA","2859428","NA","2862538","NA","NA","NA","NA","NA","NA","NA","NA","NA","NA","NA","NA","NA","2857504","2655354","2597369","2654586","NA","2593573","2857505","2862534","2593578","Left-Bias-Elimination","0","0","0","1920","160","-160","277","-277"
"undefined","undefined","undefined","undefined","#3d3846","legacy","True","legacy","legacy","undefined","undefined","0","0","39","39","NA","39","39","NA","39","NA","NA","39","NA","39","NA","NA","NA","NA","NA","NA","NA","NA","NA","NA","NA","NA","NA","39","0","0","0","0","0","39","39","0","26.147398753986955","Mon Jun 24 16:07:45 2024","The main experiment item","False","05 Milestone_FullExperiment_V7.osexp","C:\Users\yarbus\Desktop\Team_Dog\Milestone5_Final","C:\Users\yarbus\AppData\Local\Temp\tmpwlg83d_n.opensesame_pool\stimuli.csv","stimuli.csv","False","mono","False","18","no","white","no","yes","1080","23","legacy","39","39","C:/Users/yarbus/Desktop/Team_Dog/Milestone5_Final/Datenerhebung/Patrick.csv","legacy","Melodramatic Milgram","4.0.13","NA","NA","0","space","NA","3790.0","NA","3790","space","2","legacy","1024","2","48000","-16","experiment","NA","006.png","014.png","0","even","2863037.0","NA","2593571","2867637","2864623","NA","2867631","2863037","NA","2864623","NA","NA","2864631","NA","2867741","NA","NA","NA","NA","NA","NA","NA","NA","NA","NA","NA","NA","NA","2862627","2655354","2597369","2654586","NA","2593573","2862628","2867737","2593578","Left-Bias-Elimination","0","0","0","1920","-160","160","277","-277"
"undefined","undefined","undefined","undefined","#3d3846","legacy","True","legacy","legacy","undefined","undefined","0","0","40","40","NA","40","40","NA","40","NA","NA","40","NA","40","NA","NA","NA","NA","NA","NA","NA","NA","NA","NA","NA","NA","NA","40","0","0","0","0","0","40","40","0","21.858270368901568","Mon Jun 24 16:07:45 2024","The main experiment item","False","05 Milestone_FullExperiment_V7.osexp","C:\Users\yarbus\Desktop\Team_Dog\Milestone5_Final","C:\Users\yarbus\AppData\Local\Temp\tmpwlg83d_n.opensesame_pool\stimuli.csv","stimuli.csv","False","mono","False","18","no","white","no","yes","1080","23","legacy","40","40","C:/Users/yarbus/Desktop/Team_Dog/Milestone5_Final/Datenerhebung/Patrick.csv","legacy","Melodramatic Milgram","4.0.13","NA","NA","0","space","NA","3790.0","NA","3790","space","2","legacy","1024","2","48000","-16","experiment","NA","003.png","010.png","0","even","2868241.0","NA","2593571","2873296","2870276","NA","2873290","2868241","NA","2870276","NA","NA","2870290","NA","2873400","NA","NA","NA","NA","NA","NA","NA","NA","NA","NA","NA","NA","NA","2867828","2655354","2597369","2654586","NA","2593573","2867832","2873396","2593578","Left-Bias-Elimination","0","0","0","1920","277","-277","160","-160"
"undefined","undefined","undefined","undefined","#3d3846","legacy","True","legacy","legacy","undefined","undefined","0","0","41","41","NA","41","41","NA","41","NA","NA","41","NA","41","NA","NA","NA","NA","NA","NA","NA","NA","NA","NA","NA","NA","NA","41","0","0","0","0","0","41","41","0","29.519059326475812","Mon Jun 24 16:07:45 2024","The main experiment item","False","05 Milestone_FullExperiment_V7.osexp","C:\Users\yarbus\Desktop\Team_Dog\Milestone5_Final","C:\Users\yarbus\AppData\Local\Temp\tmpwlg83d_n.opensesame_pool\stimuli.csv","stimuli.csv","False","mono","False","18","no","white","no","yes","1080","23","legacy","41","41","C:/Users/yarbus/Desktop/Team_Dog/Milestone5_Final/Datenerhebung/Patrick.csv","legacy","Melodramatic Milgram","4.0.13","NA","NA","0","space","NA","3790.0","NA","3790","space","2","legacy","1024","2","48000","-16","experiment","NA","018.png","009.png","0","even","2873885.0","NA","2593571","2878465","2875447","NA","2878459","2873885","NA","2875447","NA","NA","2875458","NA","2878569","NA","NA","NA","NA","NA","NA","NA","NA","NA","NA","NA","NA","NA","2873476","2655354","2597369","2654586","NA","2593573","2873477","2878565","2593578","Left-Bias-Elimination","0","0","0","1920","0","0","-320","320"
"undefined","undefined","undefined","undefined","#3d3846","legacy","True","legacy","legacy","undefined","undefined","0","0","42","42","NA","42","42","NA","42","NA","NA","42","NA","42","NA","NA","NA","NA","NA","NA","NA","NA","NA","NA","NA","NA","NA","42","0","0","0","0","0","42","42","0","13.268156893856867","Mon Jun 24 16:07:45 2024","The main experiment item","False","05 Milestone_FullExperiment_V7.osexp","C:\Users\yarbus\Desktop\Team_Dog\Milestone5_Final","C:\Users\yarbus\AppData\Local\Temp\tmpwlg83d_n.opensesame_pool\stimuli.csv","stimuli.csv","False","mono","False","18","no","white","no","yes","1080","23","legacy","42","42","C:/Users/yarbus/Desktop/Team_Dog/Milestone5_Final/Datenerhebung/Patrick.csv","legacy","Melodramatic Milgram","4.0.13","NA","NA","0","space","NA","3790.0","NA","3790","space","2","legacy","1024","2","48000","-16","experiment","NA","005.png","019.png","0","even","2879068.0","NA","2593571","2883665","2880651","NA","2883658","2879068","NA","2880651","NA","NA","2880658","NA","2883769","NA","NA","NA","NA","NA","NA","NA","NA","NA","NA","NA","NA","NA","2878657","2655354","2597369","2654586","NA","2593573","2878659","2883765","2593578","Left-Bias-Elimination","0","0","0","1920","-277","277","160","-160"
"undefined","undefined","undefined","undefined","#3d3846","legacy","True","legacy","legacy","undefined","undefined","0","0","43","43","NA","43","43","NA","43","NA","NA","43","NA","43","NA","NA","NA","NA","NA","NA","NA","NA","NA","NA","NA","NA","NA","43","0","0","0","0","0","43","43","0","27.87899875390081","Mon Jun 24 16:07:45 2024","The main experiment item","False","05 Milestone_FullExperiment_V7.osexp","C:\Users\yarbus\Desktop\Team_Dog\Milestone5_Final","C:\Users\yarbus\AppData\Local\Temp\tmpwlg83d_n.opensesame_pool\stimuli.csv","stimuli.csv","False","mono","False","18","no","white","no","yes","1080","23","legacy","43","43","C:/Users/yarbus/Desktop/Team_Dog/Milestone5_Final/Datenerhebung/Patrick.csv","legacy","Melodramatic Milgram","4.0.13","NA","NA","0","space","NA","3790.0","NA","3790","space","2","legacy","1024","2","48000","-16","experiment","NA","013.png","012.png","0","even","2884249.0","NA","2593571","2889508","2886491","NA","2889501","2884249","NA","2886491","NA","NA","2886501","NA","2889612","NA","NA","NA","NA","NA","NA","NA","NA","NA","NA","NA","NA","NA","2883838","2655354","2597369","2654586","NA","2593573","2883839","2889608","2593578","Left-Bias-Elimination","0","0","0","1920","-277","277","160","-160"
"undefined","undefined","undefined","undefined","#3d3846","legacy","True","legacy","legacy","undefined","undefined","0","0","44","44","NA","44","44","NA","44","NA","NA","44","NA","44","NA","NA","NA","NA","NA","NA","NA","NA","NA","NA","NA","NA","NA","44","0","0","0","0","0","44","44","0","25.282193528252318","Mon Jun 24 16:07:45 2024","The main experiment item","False","05 Milestone_FullExperiment_V7.osexp","C:\Users\yarbus\Desktop\Team_Dog\Milestone5_Final","C:\Users\yarbus\AppData\Local\Temp\tmpwlg83d_n.opensesame_pool\stimuli.csv","stimuli.csv","False","mono","False","18","no","white","no","yes","1080","23","legacy","44","44","C:/Users/yarbus/Desktop/Team_Dog/Milestone5_Final/Datenerhebung/Patrick.csv","legacy","Melodramatic Milgram","4.0.13","NA","NA","0","space","NA","3790.0","NA","3790","space","2","legacy","1024","2","48000","-16","experiment","NA","000.png","011.png","0","even","2890108.0","NA","2593571","2895038","2892022","NA","2895031","2890108","NA","2892022","NA","NA","2892031","NA","2895143","NA","NA","NA","NA","NA","NA","NA","NA","NA","NA","NA","NA","NA","2889698","2655354","2597369","2654586","NA","2593573","2889699","2895138","2593578","Left-Bias-Elimination","0","0","0","1920","320","-320","0","0"
"undefined","undefined","undefined","undefined","#3d3846","legacy","True","legacy","legacy","undefined","undefined","0","0","45","45","NA","45","45","NA","45","NA","NA","45","NA","45","NA","NA","NA","NA","NA","NA","NA","NA","NA","NA","NA","NA","NA","45","0","0","0","0","0","45","45","0","27.651282409320583","Mon Jun 24 16:07:45 2024","The main experiment item","False","05 Milestone_FullExperiment_V7.osexp","C:\Users\yarbus\Desktop\Team_Dog\Milestone5_Final","C:\Users\yarbus\AppData\Local\Temp\tmpwlg83d_n.opensesame_pool\stimuli.csv","stimuli.csv","False","mono","False","18","no","white","no","yes","1080","23","legacy","45","45","C:/Users/yarbus/Desktop/Team_Dog/Milestone5_Final/Datenerhebung/Patrick.csv","legacy","Melodramatic Milgram","4.0.13","NA","NA","0","space","NA","3790.0","NA","3790","space","2","legacy","1024","2","48000","-16","experiment","NA","002.png","006.png","0","even","2895644.0","NA","2593571","2900193","2897178","NA","2900187","2895644","NA","2897178","NA","NA","2897187","NA","2900297","NA","NA","NA","NA","NA","NA","NA","NA","NA","NA","NA","NA","NA","2895231","2655354","2597369","2654586","NA","2593573","2895235","2900293","2593578","Left-Bias-Elimination","0","0","0","1920","-160","160","277","-277"
"undefined","undefined","undefined","undefined","#3d3846","legacy","True","legacy","legacy","undefined","undefined","0","0","46","46","NA","46","46","NA","46","NA","NA","46","NA","46","NA","NA","NA","NA","NA","NA","NA","NA","NA","NA","NA","NA","NA","46","0","0","0","0","0","46","46","0","28.695542667111273","Mon Jun 24 16:07:45 2024","The main experiment item","False","05 Milestone_FullExperiment_V7.osexp","C:\Users\yarbus\Desktop\Team_Dog\Milestone5_Final","C:\Users\yarbus\AppData\Local\Temp\tmpwlg83d_n.opensesame_pool\stimuli.csv","stimuli.csv","False","mono","False","18","no","white","no","yes","1080","23","legacy","46","46","C:/Users/yarbus/Desktop/Team_Dog/Milestone5_Final/Datenerhebung/Patrick.csv","legacy","Melodramatic Milgram","4.0.13","NA","NA","0","space","NA","3790.0","NA","3790","space","2","legacy","1024","2","48000","-16","experiment","NA","002.png","006.png","0","even","2900789.0","NA","2593571","2905912","2902894","NA","2905902","2900789","NA","2902894","NA","NA","2902902","NA","2906016","NA","NA","NA","NA","NA","NA","NA","NA","NA","NA","NA","NA","NA","2900379","2655354","2597369","2654586","NA","2593573","2900380","2906012","2593578","Left-Bias-Elimination","0","0","0","1920","277","-277","160","-160"
"undefined","undefined","undefined","undefined","#3d3846","legacy","True","legacy","legacy","undefined","undefined","0","0","47","47","NA","47","47","NA","47","NA","NA","47","NA","47","NA","NA","NA","NA","NA","NA","NA","NA","NA","NA","NA","NA","NA","47","0","0","0","0","0","47","47","0","28.907224398063597","Mon Jun 24 16:07:45 2024","The main experiment item","False","05 Milestone_FullExperiment_V7.osexp","C:\Users\yarbus\Desktop\Team_Dog\Milestone5_Final","C:\Users\yarbus\AppData\Local\Temp\tmpwlg83d_n.opensesame_pool\stimuli.csv","stimuli.csv","False","mono","False","18","no","white","no","yes","1080","23","legacy","47","47","C:/Users/yarbus/Desktop/Team_Dog/Milestone5_Final/Datenerhebung/Patrick.csv","legacy","Melodramatic Milgram","4.0.13","NA","NA","0","space","NA","3790.0","NA","3790","space","2","legacy","1024","2","48000","-16","experiment","NA","000.png","011.png","0","even","2906508.0","NA","2593571","2911561","2908545","NA","2911554","2906508","NA","2908545","NA","NA","2908554","NA","2911665","NA","NA","NA","NA","NA","NA","NA","NA","NA","NA","NA","NA","NA","2906099","2655354","2597369","2654586","NA","2593573","2906100","2911661","2593578","Left-Bias-Elimination","0","0","0","1920","320","-320","0","0"
